timestamp,dtNs,ax,ay,az,gx,gy,gz
356033.716192750,0,0.39775443,0.31432655,-0.38856363,0.0071477913,-0.012987052,0.0044578314
356033.736192750,0,0.26199496,0.15923631,-0.19085544,0.007380634,-0.018322319,0.00067697885
356033.756192750,20000000,0.060730994,0.029670179,-0.03535551,0.0076134764,-0.023657585,-0.003103874
356033.776192750,0,-0.0023422837,0.00017777085,-0.0011585355,0.0066192155,-0.026286704,-0.007509019
356033.796192750,0,-0.0018094182,-0.00075510144,0.00014233589,0.004901267,-0.023134952,-0.0025316803
356033.816192750,20000000,-0.0012766719,-0.0016877949,0.001443088,0.0031833192,-0.019983202,0.0024456582
356033.836192750,0,-0.003299117,-0.002250731,0.0042173266,0.004886874,-0.0087865265,0.011478142
356033.856192750,0,-0.0023730397,-0.0015319288,0.0032539964,0.0035906523,-0.005503971,0.010300871
356033.876192750,20000000,-0.0014469028,-0.00081309676,0.002290666,0.0022944305,-0.0022214158,0.0091236
356033.896192750,0,-0.001295805,0.0024212599,-0.0026279688,0.00026709354,-0.0013941887,-0.0011653611
356033.916192750,0,-0.0011602044,0.002229482,-0.002444446,-0.003477301,-0.009698005,-0.0048989453
356033.936192750,20000000,0.0008010864,0.0019920468,-0.00080376863,-0.0052867834,-0.008202898,-0.010899475
356033.956192750,0,-0.00074261427,-0.0014248788,-0.0004839301,-0.0040280027,-0.01273087,-0.0029058438
356033.976192750,0,-0.00048339367,-0.0033333302,0.0018106103,-0.0019158334,-0.008716888,0.010121914
356033.996192750,0,-0.0034332871,-0.002503842,0.0005379319,0.0027440367,-0.01416314,0.025547648
356034.016192750,0,-0.00096446276,-0.00030097365,0.00079089403,0.0011751209,-0.0037384192,0.02454257
356034.036192750,20000000,0.0015041232,0.0019020438,0.0010439157,-0.00039379485,0.006686302,0.023537494
356034.056192750,0,0.0001899004,0.00091683865,0.0007505417,0.007609806,0.016818702,0.0104171885
356034.076192750,0,-0.0032638311,0.0061876774,-0.0029170513,0.016144278,-0.00044296304,0.004080396
356034.096192750,0,-0.0019407272,0.0069691837,-0.003982842,0.0068039913,-0.0048942477,-0.0011451589
356034.116192750,20000000,-0.0006175041,0.007750571,-0.0050486326,-0.002536296,-0.009345532,-0.006370715
356034.136192750,0,0.0003668666,0.0029772818,-0.0008904338,-0.010484738,-0.008622246,-0.0112359775
356034.156192750,0,-7.9512596e-05,0.0005130768,0.00013768673,-0.008051448,-0.0063408343,-0.004710955
356034.176192751,20000000,-0.0005258918,-0.0019511282,0.0011657476,-0.0056181564,-0.004059423,0.0018140669
356034.196192751,0,0.0001257062,-0.0019342303,0.0013101101,0.0025049476,0.011708728,0.007354576
356034.216192751,0,-0.0023299456,-0.0019181967,0.00039333105,0.008176572,0.014111204,0.008283064
356034.236192751,0,-0.0016996264,0.00042128563,-0.0009173751,0.0077598244,0.015379039,0.0033292864
356034.256192751,0,-0.00091189146,0.0018328726,-0.0020867586,0.0016057771,0.024806391,-0.0076876488
356034.276192751,0,-0.00073736906,0.00063705444,-0.0032650232,-0.0024142377,0.024327192,-0.014143941
356034.296192751,20000000,-0.00056278706,-0.00055879354,-0.004443288,-0.0064342525,0.023847993,-0.020600233
356034.316192751,0,-0.0016408563,-0.003260672,-0.0037821531,-0.011036582,0.019010514,-0.022243882
356034.336192751,0,0.00010663271,-0.0055067837,-0.0030584931,-0.011398507,0.02220415,-0.020333689
356034.356192751,20000000,0.0018541813,-0.007752955,-0.0023349524,-0.011760432,0.025397787,-0.018423494
356034.376192751,0,0.0001680255,-0.012587547,-0.002515614,-0.00808499,0.030794907,-0.0049646962
356034.396192751,0,-0.0009623766,-0.014156908,-0.002434969,-0.0033731326,0.033670925,0.0032255212
356034.416192751,20000000,-0.0020928383,-0.015726238,-0.0023543835,0.0013387245,0.03654694,0.011415739
356034.436192751,0,-0.0034849644,-0.01798281,-0.0068122745,0.011241859,0.027595105,0.028117435
356034.456192751,0,9.095669e-05,-0.024787843,-0.009536207,0.04087784,0.012090136,0.062161095
356034.476192751,0,0.005338788,-0.024145722,-0.008469999,0.064783126,0.010680481,0.07617992
356034.496192751,0,0.0051914454,-0.021763384,-0.009122014,0.080756254,0.011193801,0.08784944
356034.516192751,0,0.006017685,-0.015083969,-0.008644998,0.079726696,0.015105717,0.09072954
356034.536192751,20000000,0.00684458,-0.008402586,-0.008169234,0.078697145,0.019017633,0.093609646
356034.556192751,40000000,0.0076720715,-0.0017191172,-0.0076945424,0.07766759,0.02292955,0.09648976
356034.576192751,0,0.012527823,0.007935613,-0.004754007,0.065624565,0.043383684,0.06828011
356034.596192751,20000000,0.012082934,0.011319786,-0.009211659,0.058934353,0.0462232,0.043023326
356034.616192751,0,0.016289204,0.0212968,-0.02000755,0.034942597,0.042639866,-0.018931977
356034.636192751,0,0.025753647,0.023280352,-0.024461925,0.020031802,0.052239444,-0.12028482
356034.656192751,0,0.023960233,0.017969102,-0.025225759,0.019836912,0.04041997,-0.15650801
356034.676192751,0,0.030080229,0.01634717,-0.025058925,0.012380237,0.046373814,-0.19041122
356034.696192751,0,0.034412324,0.011353612,-0.028295577,0.007986264,0.050301805,-0.22015008
356034.716192751,20000000,0.038740456,0.0063606203,-0.03153193,0.0035922914,0.0542298,-0.24988894
356034.736192751,0,0.04119858,-0.001911521,-0.03571266,0.003602703,0.042542744,-0.2926908
356034.756192751,0,0.043898493,-0.001747489,-0.035511732,-0.0066824956,0.032398336,-0.2997114
356034.776192751,20000000,0.04659182,-0.0015812218,-0.03530985,-0.016967695,0.02225393,-0.306732
356034.796192751,0,0.04829943,-0.006443262,-0.03300643,-0.05798471,0.00086677726,-0.2964005
356034.816192751,0,0.04752043,-0.0060346127,-0.032262027,-0.08289757,-0.012475198,-0.27788058
356034.836192751,20000000,0.046737015,-0.0056221783,-0.031515777,-0.10781044,-0.025817173,-0.25936067
356034.855411583,0,0.041882284,-0.006370585,-0.029894773,-0.1448974,-0.04077038,-0.22053431
356034.875411583,20000000,0.033478767,-0.005795926,-0.021027565,-0.16423017,-0.051790558,-0.1844211
356034.895411583,0,0.03067255,-0.0013434887,-0.01575327,-0.17211536,-0.04969864,-0.16810687
356034.915411583,0,0.029301405,0.0072057843,-0.0125434995,-0.18045753,-0.04265762,-0.178622
356034.935411583,0,0.026125133,0.011541992,-0.01260972,-0.19166677,-0.03518737,-0.19927785
356034.955411583,20000000,0.022950172,0.015882641,-0.012677193,-0.202876,-0.027717121,-0.21993367
356034.975411583,0,0.008494794,0.014289558,-0.009402156,-0.23595895,-0.042405665,-0.27170396
356034.995411584,0,0.007291913,0.021600276,-0.00066161156,-0.26512727,-0.039349265,-0.3073439
356035.015411584,0,0.0044279695,0.02392438,0.0017802119,-0.29271105,-0.029322088,-0.34569767
356035.035411584,0,-4.094839e-05,0.022494137,0.004108131,-0.31509417,-0.031227896,-0.3776831
356035.055411584,0,-0.0029777288,0.020078331,0.00799191,-0.33045098,-0.026472112,-0.417486
356035.075411584,20000000,-0.005911529,0.017685026,0.011872768,-0.3458078,-0.021716326,-0.4572889
356035.095411584,0,-0.031514347,0.0065137446,0.019625425,-0.34973943,-0.04965236,-0.50375426
356035.115411584,0,-0.044646382,-0.003601104,0.03477311,-0.331965,-0.064807385,-0.5262331
356035.135411584,0,-0.06634128,-0.0126384795,0.038116455,-0.32557476,-0.07393603,-0.513509
356035.155411584,0,-0.08351922,-0.017450511,0.035338998,-0.3172142,-0.1067823,-0.47136632
356035.175411584,0,-0.09364742,-0.02175188,0.058541,-0.28890026,-0.11740327,-0.40302143
356035.195411584,0,-0.09691346,-0.01905176,0.06346136,-0.2704202,-0.10676591,-0.36193353
356035.215411584,20000000,-0.10018462,-0.016328096,0.06837618,-0.25194013,-0.09612856,-0.3208456
356035.235411584,0,-0.09478903,-0.009452611,0.07699674,-0.21595237,-0.010870364,-0.27023342
356035.255411584,20000000,-0.098860204,-0.013821781,0.07494426,-0.1847075,0.026028764,-0.23749228
356035.275411584,0,-0.0971964,-0.01583299,0.0750342,-0.14951523,0.049966753,-0.21328619
356035.295411584,0,-0.094264865,-0.016121477,0.07403904,-0.12090347,0.06566886,-0.18933094
356035.315411584,20000000,-0.09133452,-0.016406417,0.07304448,-0.09229171,0.081370965,-0.1653757
356035.335411584,0,-0.07421255,-0.016842186,0.06889242,-0.02571249,0.10797459,-0.12071069
356035.355411584,0,-0.07481229,-0.027100325,0.057722628,0.035929836,0.11205104,-0.07777549
356035.375411584,20000000,-0.07141799,-0.031819224,0.058561325,0.07271764,0.10556886,-0.051620454
356035.395411584,0,-0.076173544,-0.03885463,0.057581067,0.10500029,0.093098864,-0.015228633
356035.415411584,0,-0.078302324,-0.037723422,0.0592317,0.13264306,0.081717946,0.023432508
356035.435411584,20000000,-0.0804314,-0.036590993,0.060880482,0.16028583,0.070337035,0.06209365
356035.455411584,0,-0.07181257,-0.027333826,0.070025146,0.19615893,0.09131368,0.10778003
356035.475411584,0,-0.072178125,-0.025301963,0.07176751,0.21075095,0.09889391,0.12948704
356035.495411584,20000000,-0.072542846,-0.023264676,0.07350552,0.22534296,0.106474146,0.15119404
356035.515411584,0,-0.065936446,0.0020207763,0.08075088,0.22873831,0.13190302,0.2084303
356035.535411584,0,-0.06870139,0.010240018,0.07460606,0.20877382,0.15842986,0.2723972
356035.555411584,20000000,-0.071671605,0.008146197,0.07622486,0.21095228,0.15358399,0.322048
356035.575411584,0,-0.072300315,0.005506903,0.076983035,0.22760491,0.16053997,0.3660809
356035.595411584,0,-0.07670015,0.0014252663,0.07363379,0.2878697,0.14703916,0.47990972
356035.615411584,20000000,-0.07409513,0.006252587,0.074621856,0.32122904,0.15473758,0.5102444
356035.635411584,0,-0.080393195,0.0047519803,0.07262188,0.35639536,0.14138651,0.5520316
356035.655411584,0,-0.0818302,0.0125544965,0.079832196,0.45005307,0.12381834,0.61531794
356035.675411584,20000000,-0.08194071,0.01815027,0.08154935,0.48661774,0.1262216,0.6268951
356035.695411584,40000000,-0.08205134,0.023796737,0.083262146,0.52318245,0.12862487,0.6384723
356035.715411584,0,-0.09395498,0.020220995,0.080008745,0.58448267,0.10928969,0.6662564
356035.735411584,0,-0.0860939,0.021668166,0.08646518,0.6160895,0.14352603,0.6279676
356035.755411584,0,-0.09610075,0.008270234,0.07771772,0.64372677,0.1433836,0.6168455
356035.775411584,0,-0.115357816,-0.021066278,0.056883276,0.68209773,0.12894285,0.6044036
356035.795411584,0,-0.13118035,-0.03950712,0.040605187,0.71111405,0.058473602,0.6640168
356035.815411584,0,-0.11251581,-0.030418515,0.04455638,0.70373327,0.07328682,0.6504898
356035.835411584,0,-0.117385626,-0.03817439,0.014286339,0.63742167,0.12125454,0.61304885
356035.855411584,20000000,-0.122214735,-0.045788378,-0.016052008,0.57111007,0.16922227,0.5756079
356035.875411584,0,-0.080242336,-0.040519506,0.0031208992,0.54416203,0.15867734,0.61181796
356035.895411584,20000000,-0.038250834,-0.03517109,0.022275746,0.517214,0.14813243,0.648028
356035.915411584,0,0.0138171315,-0.021318138,0.024338543,0.46123916,0.20886219,0.6147337
356035.935411584,0,0.046958774,-0.038482904,0.019956112,0.4411182,0.2761379,0.54158103
356035.955411584,0,0.090826154,-0.104855925,0.008430839,0.5354217,0.2622539,0.58129764
356035.975411584,20000000,0.13991803,-0.10451332,0.009001017,0.5810973,0.32572156,0.5973712
356035.995411584,40000000,0.18902338,-0.104059845,0.009508073,0.6267728,0.3891892,0.61344475
356036.015411584,0,0.19332579,-0.09159456,-0.053798914,0.56621045,0.44166514,0.67795146
356036.035411584,0,0.2006448,-0.06435819,-0.12947571,0.42171922,0.518716,0.7717331
356036.055411585,0,0.18406981,-0.06142977,-0.15885496,0.39923888,0.4780103,0.8557804
356036.075411585,20000000,0.16740422,-0.05823101,-0.18835974,0.37675852,0.43730462,0.93982774
356036.095411584,40000000,0.1506539,-0.05476135,-0.21799237,0.35427818,0.39659894,1.0238751
356036.115411585,0,0.1418353,-0.051279634,-0.22973138,0.4540505,0.28886855,1.0625566
356036.135411585,0,0.13687998,-0.041756123,-0.22071534,0.7636583,0.04401064,0.99687237
356036.155411585,0,0.13501061,-0.04983695,-0.18888903,0.88334715,-0.051446795,0.90404326
356036.175411585,0,0.1332456,-0.0578264,-0.15716237,1.003036,-0.14690423,0.81121415
356036.195411585,0,0.14206974,-0.07850744,-0.09127247,1.0999032,-0.25001946,0.6334313
356036.215411585,20000000,0.1451817,-0.0874469,-0.074373126,1.0816518,-0.25681737,0.5902142
356036.235411585,0,0.14332205,-0.10056281,-0.060789704,1.0230405,-0.2658217,0.5643622
356036.255411585,0,0.1384252,-0.12399221,-0.048134804,0.84330064,-0.26901224,0.5601026
356036.275411585,0,0.13942498,-0.12755018,-0.052865207,0.76295316,-0.25844637,0.56426
356036.295411585,20000000,0.14049962,-0.13111356,-0.057679713,0.6826057,-0.24788049,0.56841743
356036.315411585,40000000,0.14164838,-0.13468398,-0.06257856,0.6022582,-0.23731461,0.57257485
356036.335411585,60000000,0.14287102,-0.13826329,-0.067561984,0.5219107,-0.22674873,0.57673234
356036.355411585,0,0.14060108,-0.13726914,-0.07481724,0.49532688,-0.23043098,0.5726552
356036.375411585,20000000,0.138369,-0.1362822,-0.08210981,0.46874303,-0.23411322,0.56857806
356036.395411585,0,0.14259313,-0.11985268,-0.08895987,0.41866744,-0.2584399,0.5617387
356036.415411585,0,0.14661083,-0.1135082,-0.09099084,0.3976793,-0.27265215,0.5576922
356036.435411585,0,0.14906502,-0.10579866,-0.087236345,0.37499112,-0.29381648,0.5445062
356036.455411585,20000000,0.15154457,-0.09811973,-0.08351648,0.3523029,-0.3149808,0.53132015
356036.475411585,40000000,0.15404901,-0.090471864,-0.079830945,0.32961473,-0.33614513,0.51813406
356036.495411585,0,0.14832203,-0.080109835,-0.08285743,0.26958564,-0.40331662,0.5296387
356036.515411585,20000000,0.1557118,-0.07212357,-0.077445626,0.243633,-0.4017462,0.50903887
356036.535411585,0,0.15547554,-0.05877585,-0.068706095,0.18457027,-0.42710268,0.44067305
356036.555411585,0,0.1451863,-0.06124436,-0.070384085,0.16847417,-0.443617,0.40571788
356036.575411585,20000000,0.1348865,-0.06374381,-0.072088,0.15237807,-0.4601313,0.37076268
356036.595411585,40000000,0.124575704,-0.0662741,-0.07381761,0.13628198,-0.47664562,0.3358075
356036.615411585,0,0.10010764,-0.07617007,-0.07406026,0.13237707,-0.53724766,0.31870645
356036.635411585,20000000,0.09593254,-0.079585165,-0.071309805,0.13049793,-0.5196397,0.2657524
356036.655411585,0,0.046399713,-0.1021064,-0.08226794,0.14543398,-0.6105528,0.29211345
356036.675411585,20000000,0.036670685,-0.10190801,-0.078981996,0.13747762,-0.62642473,0.28548506
356036.695411585,40000000,0.026917696,-0.101742186,-0.075749576,0.12952127,-0.6422967,0.2788567
356036.715411585,0,0.01345697,-0.06663598,-0.032357812,0.0096544735,-0.7394538,0.34906763
356036.735411585,0,0.019924134,-0.042157635,0.016900182,-0.050188787,-0.7355767,0.35568035
356036.755411585,0,0.0178743,-0.023423344,0.05055338,-0.083260596,-0.7206358,0.36860836
356036.775411585,0,-0.0058224797,-0.012375474,0.053183377,-0.09503876,-0.6988875,0.44789687
356036.795411585,20000000,-0.02967012,-0.0014004856,0.055665433,-0.10681692,-0.6771393,0.5271854
356036.815411585,0,-0.051627815,0.018964067,0.052422583,-0.105232544,-0.66485035,0.66268086
356036.835411585,20000000,-0.054017544,0.05189523,0.05578667,-0.0898285,-0.6108117,0.77292573
356036.855411585,40000000,-0.053298116,0.08190176,0.05705595,-0.04964493,-0.53205967,0.8294206
356036.875411585,0,-0.055378854,0.104760736,0.054841995,0.016832102,-0.44488612,0.8083706
356036.895411585,0,-0.0679096,0.11367585,0.047193885,0.10288152,-0.41156274,0.7774434
356036.915411585,20000000,-0.06401914,0.12248789,0.048230708,0.16998363,-0.37976265,0.70486695
356036.935411585,0,-0.059398413,0.12416391,0.047586203,0.21134414,-0.36897612,0.6295271
356036.955411585,0,-0.040753603,0.11538617,0.054217577,0.23233005,-0.35349375,0.5496773
356036.975411585,20000000,-0.020970166,0.10102266,0.066512465,0.23808886,-0.31751996,0.47489342
356036.995411585,0,-0.01148802,0.08796987,0.070174396,0.22136237,-0.29085755,0.4467259
356037.015411585,0,-0.0024235845,0.0830642,0.0709821,0.17660241,-0.25949308,0.43360433
356037.035411585,20000000,-0.0021325946,0.07267293,0.06155467,0.12384535,-0.24453408,0.4512516
356037.055411585,0,0.001188457,0.06632739,0.055076778,0.072018,-0.23358682,0.4655177
356037.075411585,0,0.00044506788,0.05710733,0.048820257,0.050855167,-0.23985106,0.47761446
356037.095411585,20000000,-0.00036644936,0.047873974,0.04255849,0.029692337,-0.24611528,0.48971123
356037.115411585,0,0.005654514,0.0427033,0.035738647,0.021042887,-0.24442527,0.48402765
356037.135411586,0,0.006302893,0.035231978,0.025667965,0.016328039,-0.24153812,0.493918
356037.155411586,0,0.0064564347,0.035395592,0.017720878,0.0033999328,-0.2263527,0.5152365
356037.195411586,0,0.0043899417,0.032308906,0.0053269267,-0.010180854,-0.19301955,0.5672239
356037.215411586,20000000,0.0004425645,0.029516846,0.004461646,0.0048790006,-0.18134537,0.59803665
356037.235411586,0,-0.0031119585,0.027296484,0.0015355349,0.028395671,-0.1795058,0.62645733
356037.255411586,0,-0.0015661716,0.028262794,0.003157258,0.058127746,-0.17551304,0.6380524
356037.275411586,0,0.0028575659,0.032992423,0.005116284,0.0782377,-0.1667683,0.62337923
356037.295411586,20000000,0.0075850487,0.03542751,0.005838394,0.08966755,-0.14974058,0.5824052
356037.315411586,0,0.004021287,0.035915136,0.0031464696,0.088892505,-0.15627494,0.546357
356037.335411586,0,0.0090815425,0.039596647,0.005635202,0.07486101,-0.15178262,0.49540862
356037.355411586,0,0.010497272,0.037709385,0.008148193,0.06192136,-0.14711867,0.4524521
356037.375411586,20000000,0.008226037,0.03514141,0.00791353,0.04881418,-0.14621386,0.43194568
356037.395411586,0,0.010068893,0.03868082,0.009790897,0.035070524,-0.12340024,0.40168655
356037.415411586,0,0.0073990226,0.039354652,0.01236701,0.03154366,-0.10686457,0.37728977
356037.435411586,0,0.007036388,0.040730953,0.019334674,0.043769922,-0.088764936,0.34784278
356037.455411586,20000000,0.0047096014,0.041430324,0.024915755,0.06785199,-0.07640191,0.33091134
356037.475411586,0,0.014466584,0.04985234,0.02760917,0.081048466,-0.052796848,0.29373014
356037.495411586,0,0.01810497,0.049715966,0.026519418,0.087303706,0.0028940588,0.20074767
356037.515411586,20000000,-0.010306895,0.033228755,0.011767149,0.0938963,-0.018371185,0.17371097
356037.535411586,0,-0.031314075,0.018528461,0.008991003,0.10189086,-0.06454809,0.17675251
356037.555411586,0,-0.039421678,0.013062149,0.019893885,0.116759695,-0.0940344,0.19115339
356037.575411586,20000000,-0.041713893,0.015590757,0.02389419,0.10744375,-0.07325263,0.18780762
356037.595411586,0,-0.061973393,0.014291167,0.01509881,0.08428013,-0.071694896,0.21106155
356037.615411586,0,-0.07650757,0.018526137,0.013430774,0.058510803,-0.06557859,0.2307837
356037.635411586,20000000,-0.08001828,0.019015074,0.01963079,0.046878166,-0.05475817,0.23012868
356037.655411586,0,-0.074184716,0.018116564,0.032357216,0.05319872,-0.03211105,0.20501927
356037.675411586,0,-0.06348801,0.020239353,0.039383948,0.06085943,0.0027519688,0.15127924
356037.695411586,0,-0.051000178,0.016079634,0.04341495,0.06638085,0.039898347,0.08553465
356037.715411586,0,-0.03999269,0.007151872,0.049740255,0.06580056,0.08487425,0.022887304
356037.735411586,0,-0.039083004,-0.002577722,0.047780037,0.051546603,0.092791505,0.0069513395
356037.755411586,0,-0.032025337,-0.010422528,0.048264205,0.031932957,0.110255234,0.0014874563
356037.775411586,0,-0.025736809,-0.022512227,0.04923135,0.025890255,0.12976687,0.0028778207
356037.795411586,0,-0.027775168,-0.030685067,0.04266411,0.023207631,0.13163924,0.032561585
356037.815411586,0,-0.028580904,-0.02875927,0.039926887,0.017910872,0.13978511,0.06444533
356037.835411586,0,-0.033069074,-0.021455348,0.031600952,0.005278035,0.13655908,0.10940763
356037.855411586,0,-0.030360222,-0.009192735,0.025484085,-0.012979173,0.14606294,0.12775274
356037.875411586,20000000,-0.03449428,-0.0045794547,0.0179497,-0.01704902,0.15556197,0.12878413
356037.895411586,0,-0.044552684,-0.009240001,0.008445859,-0.0026383055,0.14708877,0.12923868
356037.915411586,0,-0.04982245,-0.011895001,0.0025912523,0.026880417,0.1323121,0.11413721
356037.935411586,20000000,-0.04689908,-0.017444998,0.0044664145,0.070912644,0.13156621,0.08810208
356037.955411586,0,-0.04155171,-0.022770315,0.006511688,0.11091927,0.1289843,0.0695271
356037.975411586,0,-0.031431973,-0.024032146,0.0093019605,0.13500571,0.14312267,0.053481545
356037.995411586,20000000,-0.02172786,-0.02260694,0.009435177,0.13704328,0.17205904,0.035240203
356038.015411586,0,-0.021981418,-0.024781972,0.0054243803,0.1303048,0.18390906,0.031197816
356038.035411586,0,-0.022390783,-0.030317098,0.0061990023,0.1331963,0.18649995,0.029423498
356038.055411586,20000000,-0.027691722,-0.0340496,0.007833362,0.13705108,0.16549316,0.04099174
356038.075411586,0,-0.026144981,-0.03024581,0.016453981,0.14260405,0.15941277,0.032867678
356038.095411586,0,-0.034400642,-0.03324741,0.010708988,0.14959948,0.12358668,0.05163416
356038.115411586,20000000,-0.030056,-0.035172552,0.016811848,0.16506208,0.112638816,0.031041263
356038.135411586,0,-0.03128752,-0.044721395,0.019646764,0.19434643,0.0907627,0.026228135
356038.155411586,20000000,-0.03279847,-0.05077976,0.02927214,0.23195082,0.07786588,0.020759186
356038.175411586,0,-0.041946024,-0.054021806,0.032982767,0.26934016,0.040537905,0.06314584
356038.195411586,0,-0.042206883,-0.043999344,0.03735602,0.2903858,0.0077916533,0.10802521
356038.215411587,20000000,-0.031843454,-0.030880332,0.044388354,0.30446374,-0.0135670975,0.13599543
356038.235411587,0,-0.020520031,-0.02669543,0.05822301,0.33859164,-0.020500738,0.12764828
356038.255411587,0,-0.018184125,-0.032749444,0.07594991,0.39810374,-0.022967657,0.09136027
356038.275411587,0,-0.031030327,-0.051207542,0.07481599,0.4717127,-0.059859216,0.088373914
356038.295411587,20000000,-0.02880314,-0.056882054,0.07504845,0.5265567,-0.09735273,0.09547494
356038.315411587,0,-0.022113085,-0.06179723,0.069818616,0.54207474,-0.083450116,0.09626869
356038.335411587,0,-0.0170905,-0.057366014,0.051507413,0.5039113,-0.041345734,0.09057605
356038.355411587,20000000,-0.015869558,-0.062342227,0.023148656,0.43015355,-0.016313707,0.10227694
356038.375411587,0,0.007593453,-0.066262454,0.00758487,0.35257304,0.06870823,0.06772082
356038.395411587,0,0.032919914,-0.07012026,-0.024329484,0.25035924,0.19428688,0.0024546161
356038.415411587,0,0.035258323,-0.08047949,-0.101885796,0.10349022,0.350152,-0.06566779
356038.435411587,0,0.0060985684,-0.07793832,-0.1979996,-0.095154315,0.32921192,0.051594444
356038.455411587,20000000,0.03297001,-0.01963973,-0.23496562,-0.327825,0.3646093,0.097144425
356038.475411587,0,0.032936424,0.009160429,-0.26368302,-0.4963513,0.3298095,0.13489923
356038.495411587,0,0.014683098,-0.002537787,-0.27040738,-0.5012608,0.14067455,0.23640777
356038.515411587,0,0.03921005,-0.012162507,-0.22755265,-0.35654688,0.04764189,0.18508874
356038.535411587,0,0.04095462,-0.031167924,-0.18099731,-0.12723652,-0.15073366,0.1817848
356038.555411587,0,0.08916739,-0.038159817,-0.089033425,0.11426774,-0.21483958,0.11538413
356038.575411587,0,0.12093821,-0.04785794,-0.024830043,0.28840667,-0.21605976,0.05749156
356038.595411587,20000000,0.13424966,-0.06331983,0.005126834,0.361283,-0.20279182,0.055507936
356038.615411587,0,0.14664575,-0.07577355,0.018660069,0.34629875,-0.1479949,0.07743527
356038.635411587,20000000,0.14556092,-0.09035528,0.012976408,0.2762714,-0.09295526,0.1268529
356038.655411587,0,0.13495544,-0.10388456,-0.0062978268,0.17488246,-0.04636611,0.19118547
356038.675411587,0,0.12185165,-0.11249414,-0.032073557,0.08676265,-0.04431521,0.26818222
356038.695411587,20000000,0.12422198,-0.11004558,-0.052408516,0.01674445,-0.020787869,0.3155129
356038.715411587,0,0.12761903,-0.100653574,-0.07962984,-0.04288057,-0.005860077,0.32310432
356038.735411587,0,0.12491393,-0.09342575,-0.11481559,-0.094500445,-0.02591268,0.3136933
356038.755411587,0,0.12704864,-0.08735384,-0.13294643,-0.11705129,-0.06368424,0.26782036
356038.775411587,0,0.1227752,-0.087066054,-0.14263576,-0.113695145,-0.14157945,0.22569627
356038.795411587,0,0.13149741,-0.08545163,-0.14593834,-0.10555623,-0.21108484,0.16540003
356038.815411587,0,0.13777864,-0.083419055,-0.1430515,-0.101190776,-0.2772758,0.09787892
356038.835411587,0,0.13906834,-0.08581671,-0.14162272,-0.11255527,-0.34429926,0.055529755
356038.855411587,0,0.13774744,-0.08072308,-0.1335131,-0.13996066,-0.39191607,0.030927325
356038.875411587,0,0.13255084,-0.07164052,-0.12812543,-0.1772211,-0.45670736,0.038838916
356038.895411587,0,0.1419886,-0.06823802,-0.107638836,-0.19725327,-0.50188947,0.022167772
356038.915411587,0,0.14089748,-0.06646305,-0.08708352,-0.19612436,-0.5180543,0.01270749
356038.935411587,20000000,0.1336779,-0.053606063,-0.08570093,-0.1985145,-0.53064036,0.010804826
356038.955311000,0,0.11943708,-0.04592936,-0.09298831,-0.20928137,-0.55464816,0.010850057
356038.975311000,0,0.10852608,-0.046300948,-0.083842635,-0.16819881,-0.5592583,-0.0100334175
356038.995311000,0,0.09827414,-0.04182899,-0.07984668,-0.1192234,-0.5092451,-0.07272497
356039.015311000,0,0.04832977,-0.055613935,-0.13308811,-0.11126937,-0.4491519,-0.14926511
356039.035311000,20000000,-0.015429974,-0.08621213,-0.17323655,-0.07974136,-0.555987,-0.048927315
356039.055311000,0,-0.014825404,-0.064928025,-0.15350664,-0.088704124,-0.44134185,-0.11663213
356039.075311000,0,-0.087938905,-0.06584486,-0.17839897,-0.11137103,-0.50976455,0.008840889
356039.095311000,0,-0.09928393,-0.0236637,-0.144396,-0.15329213,-0.5263922,0.07972808
356039.115311000,0,-0.10915804,0.009273201,-0.08467907,-0.15962583,-0.56607485,0.15999433
356039.135311000,0,-0.088498354,0.038921088,-0.00068086386,-0.11512938,-0.568623,0.18558018
356039.155311000,20000000,-0.059007883,0.056636006,0.07167977,-0.052929077,-0.5417722,0.1851193
356039.175311000,0,-0.020463765,0.07171556,0.13091028,-0.0043622404,-0.45764825,0.14542523
356039.195311000,0,0.010383904,0.08574137,0.16833287,-0.007031029,-0.32865405,0.097267196
356039.215311000,0,0.028947294,0.10487622,0.18820685,-0.069681756,-0.19539356,0.06245715
356039.235311000,0,0.041493356,0.1291013,0.2007218,-0.17324308,-0.030888706,-0.0004947707
356039.255311000,0,0.028650165,0.14708987,0.18788743,-0.29645878,0.08773079,-0.046866026
356039.275311000,20000000,0.011616707,0.16200265,0.16600996,-0.41205972,0.16068114,-0.098796256
356039.295311000,0,-0.0036549568,0.16652316,0.14426869,-0.49712116,0.21097985,-0.16871446
356039.315311000,0,-0.024464905,0.16248804,0.11770016,-0.5447357,0.21823679,-0.22101435
356039.335311000,20000000,-0.042321265,0.15748513,0.09737122,-0.56098515,0.19110692,-0.25134277
356039.355311000,0,-0.051106036,0.15062678,0.085681915,-0.54458046,0.13898416,-0.25627986
356039.375311000,0,-0.042329073,0.14535871,0.097625375,-0.49445513,0.119857095,-0.28063142
356039.395311000,0,-0.041757584,0.13541535,0.108563006,-0.4206602,0.10735829,-0.28242123
356039.415311000,0,-0.040915966,0.13552147,0.12593025,-0.34406853,0.103246406,-0.26985937
356039.435311000,0,-0.041854918,0.13875136,0.14580733,-0.2725092,0.12424156,-0.23923706
356039.455311000,20000000,-0.037519157,0.1579906,0.16632748,-0.23046249,0.18646131,-0.23361187
356039.475311000,0,-0.042574048,0.17317581,0.18167889,-0.19778721,0.25301495,-0.2304973
356039.495311001,0,-0.045821786,0.19878182,0.19201025,-0.19125155,0.33058277,-0.25703377
356039.515311001,20000000,-0.053999484,0.22218695,0.19106686,-0.21214172,0.40530974,-0.30104083
356039.535311001,0,-0.0581401,0.23926306,0.18683356,-0.24397893,0.48662072,-0.36523917
356039.575311001,0,-0.05488032,0.23640749,0.1764481,-0.27863947,0.68750453,-0.5449758
356039.595311001,0,-0.0540542,0.22657272,0.17319274,-0.26079506,0.7951426,-0.61690766
356039.615311001,0,-0.04964882,0.21868423,0.17056912,-0.23167397,0.9088592,-0.6785501
356039.635311001,0,-0.0370304,0.21680954,0.17139888,-0.20600659,1.0376382,-0.75297284
356039.655311001,0,-0.019561112,0.21202195,0.1672554,-0.18644346,1.1806399,-0.84474874
356039.675311001,0,-0.007085383,0.20194772,0.1582011,-0.17241643,1.3201799,-0.9511449
356039.695311001,20000000,-0.0049474835,0.17920089,0.14310235,-0.15222561,1.4156845,-1.0324451
356039.715311001,0,-0.0032667518,0.15200177,0.13185447,-0.12112847,1.4679917,-1.0884063
356039.735311001,0,-0.0014064312,0.13084832,0.12175065,-0.0900282,1.4895734,-1.1200451
356039.755311001,20000000,0.0010717213,0.11368331,0.107363045,-0.074842006,1.4783858,-1.1356872
356039.775311001,0,0.005446434,0.093464404,0.09538329,-0.05943658,1.4498849,-1.1347132
356039.795311001,0,0.0062978566,0.08020362,0.086316705,-0.052262034,1.4176829,-1.1250149
356039.815311001,0,-0.0034088492,0.06494945,0.078373015,-0.03471841,1.3515306,-1.080119
356039.835311001,0,-0.010157883,0.05659297,0.07618648,0.0016633384,1.2668959,-1.0188394
356039.855311001,20000000,-0.015132338,0.06542054,0.0669415,0.021721032,1.1696175,-0.9667436
356039.875311001,0,-0.010092467,0.07611567,0.062299192,0.023995753,1.0823725,-0.9627903
356039.895311001,0,-0.005483985,0.080694884,0.06565583,0.022357693,1.0036867,-0.97329396
356039.915311001,0,-0.012099892,0.09995571,0.063444555,-0.017857319,0.90511096,-0.9565907
356039.935311001,0,-0.0058722794,0.12927231,0.061879873,-0.108310424,0.82245547,-0.9608163
356039.955311001,0,0.0013113916,0.13153422,0.057031274,-0.17683834,0.73868674,-0.95192564
356039.975311001,0,0.011836857,0.116681874,0.06269956,-0.2042784,0.7295405,-0.98374057
356039.995311001,0,-0.0005812049,0.089142054,0.0533942,-0.18059267,0.6960031,-0.9560135
356040.015311001,0,-0.0050565004,0.08178118,0.032909214,-0.18072437,0.6389333,-0.8755401
356040.035311001,20000000,0.019320428,0.084988534,0.01396054,-0.21102804,0.65991753,-0.8398907
356040.055311001,0,0.02524528,0.07075828,-0.0325284,-0.25752714,0.7014153,-0.7881767
356040.075311001,0,0.01968968,0.05749634,-0.09458345,-0.33274448,0.7681403,-0.7270726
356040.095311001,20000000,0.0021788776,0.033492357,-0.16233814,-0.3995276,0.73889405,-0.5913338
356040.115311001,0,0.034239203,0.032984078,-0.16526544,-0.39214653,0.71422714,-0.532762
356040.135311001,0,0.08770916,0.023980886,-0.13204283,-0.29871267,0.7970353,-0.6332955
356040.155311001,0,0.08199383,-0.009732217,-0.1378032,-0.1638961,0.81019866,-0.7181193
356040.175311001,0,0.062228307,-0.058531165,-0.16341883,-0.05165992,0.72016543,-0.7240011
356040.195311001,0,0.06346023,-0.09912634,-0.1642707,0.022826783,0.61062306,-0.7164757
356040.215311001,20000000,0.06644328,-0.14652179,-0.14598227,0.08424067,0.50113076,-0.67569196
356040.235311001,0,0.06507486,-0.18368624,-0.12154353,0.12201215,0.40572065,-0.57721895
356040.255311001,0,0.067349255,-0.20391369,-0.09649867,0.13198346,0.3329829,-0.45819628
356040.275311001,0,0.06634766,-0.21359077,-0.07128507,0.12149218,0.28278202,-0.3190366
356040.295311001,0,0.06320101,-0.20774606,-0.041199625,0.09748776,0.25560674,-0.1825523
356040.315311001,0,0.063558176,-0.19695643,-0.014492691,0.10495388,0.24588357,-0.060621046
356040.335311001,20000000,0.061785415,-0.16304684,0.0004183054,0.054404136,0.2251661,-0.0208912
356040.355311001,0,0.07185924,-0.14593764,0.029315352,0.055058323,0.26968575,-0.041724302
356040.375311001,0,0.06408396,-0.13362949,0.035138607,0.04578916,0.30158752,-0.068087645
356040.395311001,20000000,0.045588985,-0.1199344,0.026130676,0.0333617,0.28868195,-0.08233123
356040.415311001,0,0.03296481,-0.10585886,0.023027003,0.0059851315,0.24408191,-0.10660044
356040.435311001,0,0.03807129,-0.08634916,0.025936306,-0.023956692,0.2536233,-0.18004592
356040.455311001,20000000,0.027745396,-0.08041823,0.014618158,-0.06115917,0.24387288,-0.25340083
356040.475311001,0,0.022916034,-0.070970625,0.011252999,-0.091062635,0.22953872,-0.34829968
356040.495311001,0,0.020008355,-0.062492236,0.008223593,-0.13054651,0.22470583,-0.4703961
356040.515311001,0,0.015496835,-0.06874095,0.0043121576,-0.15775065,0.21063605,-0.5532555
356040.535311001,0,0.010355651,-0.08384374,0.007144332,-0.1578436,0.21535541,-0.56929994
356040.555311001,20000000,0.005224198,-0.09896062,0.009968817,-0.15793656,0.22007477,-0.58534443
356040.575311002,0,-0.008025527,-0.117710866,0.00708586,-0.13384306,0.22072005,-0.5396088
356040.595311002,0,-0.020992398,-0.12796885,0.0038927794,-0.11289341,0.21377687,-0.4557038
356040.615311002,20000000,-0.029477596,-0.11928968,0.004332006,-0.109112635,0.19503078,-0.36704773
356040.635311002,0,-0.032361418,-0.10693839,0.010880649,-0.1120852,0.21733262,-0.3052816
356040.655311002,0,-0.056728154,-0.100718185,0.00013428926,-0.106899,0.16863734,-0.18547703
356040.675311002,0,-0.054573774,-0.073243186,0.0077117085,-0.11536927,0.1456299,-0.12314816
356040.695311002,0,-0.05195363,-0.043091625,0.011787415,-0.13854149,0.13191809,-0.107675344
356040.715311002,0,-0.044577286,-0.016895995,0.009686112,-0.15576276,0.13269307,-0.17453943
356040.735311002,0,-0.052207023,-0.020689994,0.0013777614,-0.15728775,0.1112155,-0.23699616
356040.755311002,0,-0.05927545,-0.03410141,-0.0039687157,-0.13026792,0.07016112,-0.2949915
356040.775311002,0,-0.06727725,-0.05178301,-0.0045339465,-0.09401102,0.025487393,-0.3151474
356040.795311002,0,-0.07554276,-0.06298126,0.00057297945,-0.05806876,-0.024267372,-0.30088142
356040.815311002,0,-0.08017975,-0.074416816,0.0058836937,-0.026163168,-0.07997301,-0.24381422
356040.835311002,0,-0.06944756,-0.07349397,0.023459435,0.00018557161,-0.11522208,-0.21146151
356040.855311002,0,-0.057219803,-0.07407212,0.045190275,0.028640745,-0.12281708,-0.22753885
356040.875311002,0,-0.054362133,-0.08170293,0.057147443,0.05174637,-0.07954598,-0.2978571
356040.895311002,0,-0.09139781,-0.106918246,0.02143246,0.038728654,-0.116220236,-0.25295663
356040.915311002,20000000,-0.0584608,-0.06556845,0.033248246,-0.048073925,-0.008055821,-0.30379382
356040.935311002,0,-0.086766884,-0.041791603,-0.02819091,-0.22847435,0.06222996,-0.22110453
356040.955311002,0,-0.07076545,0.03893298,-0.07569158,-0.48710775,0.11364795,-0.10977427
356040.975311002,20000000,-0.035332844,0.137236,-0.08429122,-0.7406961,0.13285488,-0.06142585
356040.995311002,0,-0.010438412,0.16466153,-0.064600945,-0.8576952,0.25370485,-0.21283908
356041.015311002,0,-0.084820196,0.084775776,-0.0892933,-0.7225563,0.09070262,-0.13328059
356041.035311002,20000000,-0.043474704,0.07619044,-0.048219085,-0.5077048,0.08003728,-0.17007881
356041.055311002,0,0.010174006,0.10179493,-0.0039789677,-0.32272026,0.20635556,-0.317676
356041.075311002,0,0.03602566,0.112146586,0.03131485,-0.17723279,0.3571151,-0.43871212
356041.095311002,0,0.041955948,0.10238561,0.054077268,-0.083077036,0.47492716,-0.5554619
356041.115311002,0,0.0021471381,0.04571739,0.02475816,-0.03656784,0.46281046,-0.50324756
356041.135311002,0,0.01534909,0.040001154,0.024780631,-0.058092818,0.43156195,-0.45884973
356041.155311002,20000000,0.04173477,0.044308007,0.04481238,-0.12034866,0.42450884,-0.45267335
356041.175311002,0,0.05449246,0.038959235,0.05966711,-0.18802139,0.43461463,-0.45814815
356041.195311002,0,0.040181227,0.025958955,0.04871732,-0.24511924,0.38394412,-0.37971547
356041.215311002,20000000,0.047113225,0.02804771,0.054283798,-0.2929033,0.38822302,-0.33270955
356041.235311002,0,0.0401503,0.03232047,0.045653343,-0.32281408,0.3722286,-0.25225425
356041.255311002,0,0.046198286,0.048918843,0.04876691,-0.32852766,0.4149868,-0.23117675
356041.275311002,20000000,0.031211682,0.053915173,0.032568216,-0.31788722,0.4465201,-0.22214709
356041.295311002,0,-0.002378501,0.041513324,0.00899756,-0.27249065,0.3815021,-0.17171593
356041.315311002,0,-0.011462934,0.03703499,0.0071539283,-0.20728636,0.34975252,-0.14350681
356041.335311002,20000000,-0.02823262,0.030662954,0.0038933754,-0.1437327,0.27968428,-0.099951655
356041.355311002,0,-0.027410746,0.033634543,0.015181243,-0.094888896,0.23529741,-0.06249113
356041.375311002,0,-0.024941437,0.04570821,0.02415812,-0.08080265,0.21174122,-0.03451176
356041.395311002,20000000,-0.02791927,0.052929223,0.025382817,-0.089737356,0.190652,-0.022690322
356041.415311002,0,-0.04387662,0.041577846,0.022342801,-0.06929066,0.117707506,0.029682957
356041.435311002,20000000,-0.045885116,0.039283037,0.033502817,-0.035426207,0.08670128,0.038579665
356041.455311002,0,-0.06591313,0.031131119,0.03311199,0.007077802,0.02962317,0.08887653
356041.475311002,0,-0.074850634,0.033158034,0.04749465,0.0522262,0.00016105734,0.1369957
356041.495311002,0,-0.08289446,0.045045763,0.06082946,0.089553565,-0.016913544,0.17451274
356041.515174667,0,-0.08605003,0.06510631,0.06941817,0.101364605,-0.053810995,0.20815635
356041.535174667,0,-0.05182714,0.098750055,0.089508295,0.07399875,-0.017906211,0.17954849
356041.555174667,20000000,-0.017599203,0.13239646,0.10959673,0.046632897,0.017998576,0.15094063
356041.575174667,0,0.0037935004,0.15797809,0.10067737,-0.022941325,0.036423683,0.082791686
356041.595174667,0,0.021867387,0.13898847,0.08457124,-0.05331015,0.012784496,-0.004069805
356041.615174667,0,-0.018546976,0.020103484,-0.01860565,0.010615051,0.103332914,-0.021583803
356041.635174667,20000000,-0.058962785,-0.09878296,-0.121783614,0.07454026,0.19388135,-0.0390978
356041.655174667,0,-0.015696667,-0.08212718,-0.11620772,0.124858886,0.18442073,0.14726193
356041.675174667,20000000,0.027606312,-0.06547296,-0.1106472,0.17517751,0.17496012,0.33362168
356041.695174667,40000000,0.07094602,-0.048820764,-0.10510248,0.22549614,0.16549951,0.5199814
356041.715174667,60000000,0.095895946,-0.0077804327,-0.199332,0.1353195,0.08080128,0.7211975
356041.735174667,80000000,0.1624121,0.01829043,-0.26826662,0.029270254,-0.11752266,0.8785083
356041.755174667,100000000,0.21465541,-0.037620395,-0.27360976,0.105195716,-0.20460686,0.8339427
356041.775174667,120000000,0.26689455,-0.09350079,-0.27894527,0.18112119,-0.29169106,0.7893771
356041.795174667,0,0.29309332,-0.14611906,-0.262186,0.34979105,-0.38682947,0.80481666
356041.815174667,20000000,0.2878031,-0.17174259,-0.2384724,0.49280345,-0.5076405,0.9515529
356041.835174667,40000000,0.28544897,-0.15995747,-0.20270789,0.57078224,-0.59040356,1.1382949
356041.855174667,60000000,0.28709698,-0.13164437,-0.16124952,0.6029409,-0.6540059,1.2965147
356041.875174667,80000000,0.2835008,-0.102688804,-0.11341572,0.618537,-0.6801651,1.3606576
356041.895174667,100000000,0.26573142,-0.08128515,-0.067237794,0.6485438,-0.7240532,1.3489518
356041.915174667,120000000,0.24405113,-0.062891334,-0.021873772,0.68187964,-0.75584817,1.2688016
356041.935174667,140000000,0.22311263,-0.047412544,0.008267701,0.6994741,-0.775087,1.1562883
356041.955174667,160000000,0.21291327,-0.02781324,0.029153466,0.67813003,-0.7447197,0.9824331
356041.975174667,0,0.1901311,-0.032617703,0.023180962,0.6231564,-0.69781214,0.82414496
356041.995174667,20000000,0.16957346,-0.051912963,0.0043248534,0.5566892,-0.6824656,0.7068397
356042.015174667,40000000,0.1548809,-0.07154445,-0.005235374,0.49376935,-0.6523698,0.61572444
356042.035174667,60000000,0.14028215,-0.09128021,-0.014988005,0.4308495,-0.6222739,0.5246092
356042.055174667,0,0.11911419,-0.10737255,-0.030814826,0.37637728,-0.6284148,0.48222044
356042.075174667,20000000,0.10276156,-0.12337391,-0.037852824,0.33363062,-0.6422772,0.4559188
356042.095174667,40000000,0.07956973,-0.14686412,-0.035682917,0.31500605,-0.6689519,0.48099646
356042.195174667,0,0.029453844,-0.12906283,0.08939022,0.24620214,-0.509642,0.6621076
356042.215174667,20000000,0.0033187717,-0.13579932,0.09821534,0.21957417,-0.48562223,0.64132476
356042.235174667,40000000,-0.0044234395,-0.13332847,0.12075496,0.1940477,-0.456446,0.5930043
356042.255174667,60000000,-0.00049749017,-0.123517156,0.13561177,0.14399141,-0.405273,0.53998744
356042.275174667,80000000,0.016951099,-0.0901718,0.14777833,0.058597073,-0.3378003,0.50331813
356042.295174667,100000000,0.039923966,-0.042316467,0.16729462,-0.01775866,-0.20303878,0.47093982
356042.315174667,120000000,0.044092327,0.021436378,0.15810782,-0.08904928,-0.08240945,0.51124555
356042.335174667,0,0.044809744,0.10318455,0.12625921,-0.16272244,0.0074608773,0.5575487
356042.355174667,20000000,0.03850971,0.15725428,0.08270794,-0.18755248,0.09006355,0.56398964
356042.375174667,40000000,0.02543357,0.19262098,0.03368026,-0.14639652,0.1218676,0.59842116
356042.395174667,60000000,0.032981172,0.2551019,-0.008902073,-0.11114208,0.16205673,0.5689431
356042.415174667,80000000,0.041226402,0.3206085,-0.037980914,-0.11692205,0.2583413,0.44224742
356042.435174667,100000000,0.0011714101,0.35112292,-0.08105922,-0.14573182,0.22962351,0.33052716
356042.455174667,120000000,-0.045142442,0.3407334,-0.084769785,-0.110141926,0.13840175,0.26220724
356042.475174667,140000000,-0.09501082,0.31032127,-0.068347156,-0.008141227,-0.05536206,0.28445983
356042.495174667,160000000,-0.088355646,0.30988142,-0.0058443546,0.11143456,-0.1689513,0.24013716
356042.515174667,180000000,-0.0823732,0.31991893,0.031167388,0.13678533,-0.19718236,0.16286549
356042.535174667,200000000,-0.07638335,0.32994455,0.06815529,0.1621361,-0.22541341,0.08559381
356042.555174667,220000000,-0.07954256,0.29342094,0.094578564,0.1937857,-0.18456905,-0.028613992
356042.575174667,240000000,-0.09082857,0.28931344,0.08934486,0.15931532,-0.12046505,-0.027395498
356042.595174667,260000000,-0.1021141,0.2852072,0.08409214,0.124844946,-0.056361042,-0.026177004
356042.615174668,280000000,-0.11339921,0.2811022,0.07882041,0.090374574,0.0077429637,-0.024958508
356042.635174667,300000000,-0.10874137,0.28954807,0.06922561,0.044232804,0.061043527,-0.11599205
356042.655174668,0,-0.09904221,0.29386103,0.0640232,0.011201076,0.13973135,-0.29445538
356042.675174668,20000000,-0.10974133,0.25527933,0.07495552,0.0842394,0.12065734,-0.36521295
356042.695174668,0,-0.08313008,0.2626475,0.09907645,0.11885479,0.15487729,-0.47381637
356042.715174668,0,-0.075218916,0.25426555,0.113789976,0.12646198,0.15296844,-0.50957334
356042.735174668,20000000,-0.05493611,0.27541056,0.11592454,0.053785898,0.17033127,-0.5582641
356042.755174668,0,-0.03523323,0.28018254,0.117408395,-0.013716988,0.22113489,-0.64282227
356042.775174668,20000000,-0.015553534,0.2849334,0.1188885,-0.081219874,0.2719385,-0.7273804
356042.795174668,40000000,0.0041033328,0.28966284,0.12036449,-0.14872277,0.32274213,-0.8119386
356042.815174668,0,0.009495378,0.27573594,0.09597373,-0.21465869,0.3624114,-0.87783396
356042.835174668,0,0.014542684,0.2403107,0.07148963,-0.24198176,0.39630154,-0.9328253
356042.855174668,20000000,0.008552611,0.19163378,0.045630574,-0.22544003,0.3723907,-0.9529484
356042.875174668,0,0.004682958,0.13801569,0.03516996,-0.18083255,0.4145831,-1.0071021
356042.895174668,0,-0.06738648,0.036483616,-0.06245923,-0.21649283,0.6801444,-1.1089584
356042.915174668,0,-0.26953003,-0.07231052,-0.24135667,-0.2705804,0.1565597,-0.5138474
356042.935174668,0,-0.12965053,0.04600483,-0.1313132,-0.3696869,0.24154648,-0.53640944
356042.955174668,0,-0.03689505,0.08892235,-0.10920954,-0.5308309,0.52184,-0.7865957
356042.975174668,20000000,-0.054371014,-0.029456258,-0.17809165,-0.5849913,0.6126573,-0.8475975
356042.995174668,0,-0.009341121,-0.10352939,-0.13087618,-0.45054275,0.5075078,-0.6818594
356043.015174668,20000000,0.03577459,-0.17765671,-0.083762646,-0.31609416,0.40235832,-0.51612127
356043.035174668,0,0.06972462,-0.16655315,-0.06282133,-0.23146379,0.41260353,-0.5054354
356043.055174668,0,0.097470894,-0.14749357,-0.02573371,-0.13271993,0.50297743,-0.5441675
356043.075174668,0,0.08236649,-0.1349455,-0.01930672,-0.15097919,0.49856135,-0.60719645
356043.095174668,20000000,0.067256615,-0.12249046,-0.012956381,-0.16923845,0.49414524,-0.6702253
356043.115174668,40000000,0.07207047,-0.11554548,0.017306864,-0.18416487,0.42816854,-0.729828
356043.135174668,0,0.09969053,-0.12091027,0.053663254,-0.19025911,0.45438245,-0.8238416
356043.155174668,0,0.094926596,-0.11976814,0.05942297,-0.20263602,0.45341235,-0.8530255
356043.175174668,20000000,0.09017205,-0.118703276,0.06514013,-0.21501294,0.45244226,-0.8822094
356043.195174668,0,0.0762532,-0.105905116,0.062261045,-0.25184822,0.4118133,-0.8754808
356043.215174668,0,0.06285776,-0.09586735,0.061386645,-0.30493218,0.40679696,-0.9313838
356043.235174668,20000000,0.049528457,-0.08588734,0.060465515,-0.35801613,0.40178066,-0.9872868
356043.255174668,0,0.015146852,-0.109101325,0.04939252,-0.35486934,0.315887,-0.95952904
356043.275174668,0,0.0065943897,-0.11298843,0.06478989,-0.292443,0.30353454,-0.8518801
356043.295174668,20000000,-0.001899898,-0.1168832,0.080165565,-0.23001668,0.29118207,-0.74423105
356043.315174668,0,0.0046858788,-0.073559165,0.07063073,-0.22819977,0.36769524,-0.6958594
356043.335174668,0,0.012479223,-0.06894688,0.04361558,-0.19971251,0.4102308,-0.74924254
356043.355174668,20000000,0.020304732,-0.064393625,0.016557455,-0.17122526,0.45276633,-0.8026257
356043.395174668,0,0.020381585,-0.12723973,-0.0665288,-0.09329975,0.33040476,-0.83860326
356043.415174668,20000000,0.016813263,-0.16219701,-0.109205365,-0.084814005,0.21032655,-0.6890675
356043.435174668,40000000,0.033935867,-0.16473722,-0.12561935,-0.10158587,0.12426698,-0.53484327
356043.455174669,0,0.025805205,-0.12910114,-0.1299271,-0.15082493,0.030992813,-0.45582423
356043.475174669,20000000,0.017686106,-0.09344947,-0.13423705,-0.20006397,-0.06228134,-0.3768052
356043.495174669,0,-0.014541045,-0.05834578,-0.1357457,-0.2808993,-0.22571646,-0.44861832
356043.515174669,0,-0.038616344,-0.03214374,-0.11314273,-0.3646709,-0.3221492,-0.67217577
356043.535174669,0,-0.08002466,-0.009144962,-0.109342575,-0.5167353,-0.34229732,-0.9268051
356043.555174669,0,-0.1462057,0.028551131,-0.15924323,-0.8460819,-0.38012767,-1.1183299
356043.575174669,20000000,-0.15897645,0.08439693,-0.19109964,-1.3322461,-0.26378238,-1.4099793
356043.595174669,0,-0.10969859,0.11991495,-0.094712615,-1.6470937,-0.4223666,-1.3906742
356043.615174669,0,0.10980673,0.24208465,0.10408342,-1.7922143,0.043695807,-1.9893441
356043.635174669,0,0.07348652,0.21923557,0.017444551,-1.9018627,-0.04090973,-2.0596142
356043.655174669,0,0.11718616,0.21920875,-0.023329437,-2.042722,0.046500266,-2.2640395
356043.675174669,20000000,0.1620638,0.22073463,-0.06516588,-2.1835814,0.13391027,-2.4684649
356043.695174669,40000000,0.1245541,0.14766252,-0.06853211,-2.1666536,0.16344821,-2.5132833
356043.715174669,0,0.09948431,0.05937603,-0.046753585,-1.9499048,0.08009363,-2.4246235
356043.735174669,20000000,0.102774635,0.0169999,-0.06676048,-1.7244923,-0.067076825,-2.1443598
356043.755174669,0,0.1383116,0.011641979,-0.04756099,-1.5528967,-0.032733556,-2.012664
356043.775174669,20000000,0.17425524,0.0076439977,-0.028708637,-1.3813013,0.0016097128,-1.8809681
356043.795174669,0,0.12737474,-0.018220782,-0.029460192,-1.2439339,-0.08593549,-1.591653
356043.815174669,20000000,0.1430769,-0.044974625,0.022145748,-1.0549798,-0.05688537,-1.3010547
356043.835174669,0,0.13989067,-0.05781907,0.033294916,-0.8622887,-0.003973212,-1.0848801
356043.855174669,20000000,0.13677856,-0.07037163,0.04440576,-0.6695976,0.048938937,-0.8687056
356043.875174669,40000000,0.13373506,-0.08263034,0.055482924,-0.47690654,0.10185109,-0.652531
356043.895174669,0,0.117281795,-0.09306136,0.06191677,-0.3090521,0.09599046,-0.5090598
356043.915174669,0,0.09629816,-0.11063799,0.07345247,-0.15414631,0.035510547,-0.36198038
356043.935174669,20000000,0.09596953,-0.11283493,0.08990383,-0.014003009,0.05553077,-0.2338586
356043.955174669,0,0.07713047,-0.10126057,0.061352253,0.0737547,0.055437174,-0.08721478
356043.975174669,0,0.070978135,-0.083574355,0.03374785,0.11129231,0.113537505,0.04075317
356043.995174669,0,0.04144013,-0.06252226,0.024541795,0.16342852,0.03492459,0.2966507
356044.015174669,20000000,0.011898339,-0.041442215,0.015335083,0.21556473,-0.043688327,0.5525483
356044.035174669,40000000,0.023326695,0.008114815,0.010028958,0.2677814,-0.028131738,0.78540784
356044.055174669,0,0.030367106,0.060592473,-0.009361446,0.27014425,-0.016506398,0.79643327
356044.075174669,20000000,0.037358582,0.11323309,-0.028733253,0.2725071,-0.004881058,0.80745864
356044.095174669,40000000,0.012591839,0.080693305,-0.019255936,0.38769233,0.0017324788,0.7504327
356044.115174669,0,-0.018026352,0.050234854,-0.023956656,0.5855737,-0.17428605,0.8330553
356044.135174669,0,-0.015487045,0.041718245,-0.013802171,0.7456866,-0.3018443,0.8724401
356044.155174669,20000000,-0.0037355125,0.036180854,0.0007121563,0.8653106,-0.35915434,0.8784329
356044.175174669,0,0.00010719895,0.020176172,0.011007667,0.9546431,-0.39896342,0.9051261
356044.195174669,0,-0.006771952,-0.022434115,0.019463181,1.0666966,-0.4368047,1.0446411
356044.215174669,20000000,-0.013398826,-0.06479898,0.02776426,1.1787503,-0.47464597,1.1841562
356044.235174669,0,-0.036502153,-0.11650631,0.0029265285,1.2911979,-0.5131753,1.4635078
356044.255174669,0,-0.04676196,-0.15306094,-0.022150576,1.3962743,-0.5538523,1.8395227
356044.275174669,20000000,-0.04582843,-0.17418689,-0.040881872,1.4914985,-0.5764748,2.238119
356044.295174669,0,-0.0011965036,-0.16339865,-0.052669942,1.5923343,-0.577932,2.5801845
356044.315174669,20000000,0.044033766,-0.15139294,-0.06453949,1.6931701,-0.5793892,2.9222503
356044.335174669,40000000,0.10300943,-0.11838159,-0.0864923,1.745792,-0.5014005,3.0792322
356044.355174669,0,0.14874029,-0.083352864,-0.11351061,1.7511079,-0.45615187,3.0925195
356044.375174669,0,0.1981608,-0.052835375,-0.11124867,1.7349561,-0.38599113,2.9548385
356044.395174669,0,0.22864254,-0.032482207,-0.102234304,1.7051512,-0.3531188,2.7719922
356044.415174669,20000000,0.2534283,-0.013890415,-0.0910607,1.6458703,-0.341752,2.5886192
356044.435174669,0,0.26936185,0.012341857,-0.08548808,1.5287706,-0.32165706,2.4205363
356044.455174669,0,0.27879536,0.045296162,-0.09366459,1.3333855,-0.28158087,2.2411015
356044.475174669,0,0.27517805,0.068994015,-0.1087805,1.099617,-0.24297073,2.0579255
356044.495174669,20000000,0.26235566,0.07783407,-0.11625183,0.88281506,-0.22422192,1.873921
356044.515174670,0,0.24514088,0.07696402,-0.11962551,0.70771825,-0.22242053,1.6862476
356044.535174670,0,0.21272446,0.07319462,-0.124893785,0.5726019,-0.27251786,1.5188608
356044.555174670,20000000,0.19090891,0.07674217,-0.118402064,0.46560562,-0.32713228,1.321431
356044.575174670,0,0.16649929,0.062460214,-0.105971456,0.4029147,-0.39801836,1.11566
356044.635174670,0,0.117373616,-0.006966561,-0.03969848,0.3082239,-0.52992356,0.5519248
356044.655174670,20000000,0.10787917,-0.03528121,-0.010696948,0.29968476,-0.5390058,0.39401066
356044.675174670,40000000,0.09756227,-0.05762835,0.015741944,0.26685908,-0.5215007,0.29940578
356044.695174670,0,0.09614448,-0.06929609,0.038422346,0.20659617,-0.46565458,0.22852597
356044.715174670,20000000,0.09746519,-0.07623649,0.05604416,0.12708986,-0.36551017,0.15192634
356044.735174670,0,0.08792178,-0.09010525,0.06337315,0.05675035,-0.2625504,0.087713875
356044.755174670,20000000,0.07230641,-0.10366979,0.057842016,-0.011640824,-0.097233236,-0.010731652
356044.775174670,0,0.015545845,-0.13031448,0.0062021017,-0.09101268,-0.008731581,-0.037260056
356044.795174670,0,-0.026559398,-0.14216,-0.026373506,-0.1667708,0.014939375,-0.0106824
356044.815174670,0,-0.04476185,-0.13293949,-0.028633654,-0.23771921,0.047508694,0.008666869
356044.835174670,0,-0.0407618,-0.09888767,0.008746564,-0.27990437,0.059636775,0.03429013
356044.855174670,0,-0.041676387,-0.037482053,0.035753608,-0.3519695,0.1267028,-0.0034402572
356044.875174670,20000000,-0.04258117,0.023933738,0.06269479,-0.42403466,0.19376883,-0.04117065
356044.895174670,40000000,-0.043475926,0.08536005,0.089570105,-0.49609983,0.26083487,-0.07890104
356044.915174670,60000000,-0.055963293,0.12858811,0.101165354,-0.5553202,0.3408391,-0.16558133
356044.935174670,0,-0.09962171,0.14164138,0.08242172,-0.5822314,0.33779404,-0.19205603
356044.955174670,0,-0.11177151,0.16928586,0.074118435,-0.5784578,0.35112682,-0.2569105
356044.975174670,0,-0.11477129,0.17151731,0.06594753,-0.52190864,0.3596558,-0.39191565
356044.995174670,20000000,-0.117672816,0.17374253,0.05767709,-0.4653595,0.36818478,-0.5269208
356045.015174670,40000000,-0.12047522,0.17596355,0.049307883,-0.40881038,0.37671378,-0.6619259
356045.035174670,60000000,-0.123177856,0.1781824,0.040840566,-0.35226128,0.38524276,-0.796931
356045.055174670,0,-0.13268182,0.15122655,0.038478076,-0.25490096,0.38069093,-0.88923466
356045.075174670,20000000,-0.13218623,0.11746663,0.042813063,-0.14904356,0.36752033,-0.9177273
356045.095174670,0,-0.12145284,0.088566095,0.056216717,-0.054105334,0.38591504,-0.9364628
356045.115174670,0,-0.117912546,0.06689039,0.06762159,0.019464716,0.38181287,-0.92964965
356045.135174670,0,-0.11153385,0.05076453,0.086002946,0.0740138,0.40460518,-0.9297405
356045.155174670,0,-0.12112604,0.039775968,0.08974767,0.09166264,0.40396097,-0.9033912
356045.175174670,0,-0.12615691,0.043927282,0.09154105,0.06266469,0.41818675,-0.88266313
356045.195174670,20000000,-0.13127588,0.04806283,0.09332049,0.033666734,0.43241253,-0.861935
356045.215174670,40000000,-0.13323408,0.053732663,0.09779018,-0.0007608831,0.46218783,-0.8599098
356045.235174670,0,-0.13755058,0.069988966,0.09433955,-0.047253132,0.48039204,-0.8794044
356045.255174670,0,-0.13465184,0.09843132,0.092630446,-0.12113963,0.5026552,-0.93877
356045.275174670,0,-0.1272794,0.13559586,0.08744323,-0.22397666,0.52841437,-1.0501642
356045.295174670,0,-0.10987459,0.1868099,0.08414823,-0.38453838,0.55875015,-1.2441795
356045.315174670,0,-0.09367092,0.24193284,0.07913828,-0.6149526,0.57445776,-1.5651205
356045.335174670,0,-0.08504611,0.22704214,0.07534748,-0.88026935,0.52969176,-1.9258312
356045.355174670,20000000,-0.075645596,0.21279016,0.07128459,-1.145586,0.48492575,-2.286542
356045.375174670,40000000,-0.06549841,0.19921997,0.06697345,-1.4109027,0.44015974,-2.6472528
356045.395174670,60000000,-0.054635823,0.18637231,0.062438667,-1.6762195,0.39539373,-3.0079637
356045.415174670,80000000,-0.052105427,0.13146883,0.050089836,-1.8463113,0.36131483,-3.2228794
356045.435174670,0,-0.05325803,0.052756697,0.05586046,-1.8703046,0.25133735,-3.1634738
356045.455174670,0,0.008019984,0.022702903,0.08149338,-1.8251848,0.45350665,-3.1572678
356045.475174670,0,-0.03492734,-0.030621827,-0.03385228,-1.7848465,0.57532275,-2.9458048
356045.495174670,0,-0.08649263,-0.059332043,-0.13156354,-1.6974103,0.4050626,-2.4761474
356045.515174670,0,0.019165158,-0.011359602,-0.08824569,-1.5779915,0.5343201,-2.2166445
356045.535174670,0,0.10129659,0.052223682,-0.08632833,-1.4840478,0.7121308,-2.0593164
356045.555174670,0,0.16231251,0.100090384,-0.08673513,-1.4007885,0.88447046,-1.9737558
356045.575174670,0,0.20605674,0.1161623,-0.08781779,-1.302772,0.9760224,-1.8571253
356045.595174671,0,0.25390917,0.11529654,-0.08141625,-1.1929418,1.0621907,-1.7866875
356045.635174671,0,0.28102586,0.06528884,-0.07090527,-0.9158085,1.0822936,-1.6166526
356045.655174671,0,0.2694499,0.037242174,-0.07219064,-0.76891017,1.0269417,-1.4968357
356045.675174671,20000000,0.26482752,0.029699266,-0.074401975,-0.6566809,1.0099924,-1.4056191
356045.695174671,0,0.24286258,0.028499842,-0.08446872,-0.590001,0.9621673,-1.3142437
356045.715174671,0,0.20574391,0.008934379,-0.094242394,-0.5186943,0.8555563,-1.1453161
356045.735174671,0,0.18556705,-0.003509283,-0.092586815,-0.4347359,0.75924295,-0.98578423
356045.755174671,0,0.16928522,-0.011583269,-0.08821064,-0.33492708,0.6742053,-0.84753907
356045.775174671,20000000,0.16544937,-0.011455953,-0.07901615,-0.2439392,0.61573154,-0.7738642
356045.795174671,0,0.1602473,-0.016047657,-0.06948942,-0.15748687,0.5756488,-0.7356143
356045.815174671,0,0.15290707,-0.023932338,-0.06069857,-0.100710735,0.5194329,-0.73400545
356045.835174671,20000000,0.14548591,-0.031820238,-0.05189997,-0.043934606,0.46321705,-0.73239666
356045.855174671,0,0.13883416,-0.050728023,-0.041782737,-0.015398109,0.4174935,-0.7294268
356045.875174671,20000000,0.13249992,-0.06363404,-0.031785607,-0.018101554,0.39172432,-0.7222304
356045.895174671,0,0.11968629,-0.07332274,-0.03841263,-0.059094224,0.35087842,-0.69024837
356045.915174671,0,0.11408846,-0.07847676,-0.042807937,-0.11907457,0.3137682,-0.63036036
356045.935174671,20000000,0.10844988,-0.08361471,-0.04718733,-0.1790549,0.276658,-0.5704724
356045.955174671,40000000,0.103069514,-0.084477395,-0.052464426,-0.22813848,0.23260754,-0.5007209
356045.975174671,0,0.09978917,-0.07874465,-0.05948615,-0.26172924,0.2069072,-0.44908524
356045.995174671,20000000,0.096520215,-0.07299644,-0.066506624,-0.29531997,0.18120684,-0.39744955
356046.015174671,40000000,0.0892345,-0.06647995,-0.072252095,-0.31413734,0.15683813,-0.36470625
356046.035174671,0,0.0794923,-0.062043697,-0.076809645,-0.3096575,0.099150896,-0.3231697
356046.055174671,0,0.07790661,-0.055938423,-0.07558578,-0.2688999,0.06229552,-0.3244643
356046.075174671,20000000,0.07632962,-0.049809724,-0.07436371,-0.22814226,0.025440145,-0.32575887
356046.095174671,40000000,0.07476115,-0.043657422,-0.07314342,-0.18738462,-0.011415232,-0.32705346
356046.115174671,60000000,0.07320109,-0.037481725,-0.071924746,-0.14662698,-0.048270606,-0.32834807
356046.135174671,0,0.07461488,-0.029801995,-0.06885952,-0.10361363,-0.07322291,-0.3365276
356046.155174671,20000000,0.05956599,-0.02869159,-0.07853353,-0.06316303,-0.12915146,-0.30836657
356046.175174671,0,0.060829103,-0.029002517,-0.07798946,-0.019398715,-0.16767809,-0.32016337
356046.195174671,20000000,0.06207487,-0.029280126,-0.07746047,0.0243656,-0.20620471,-0.33196017
356046.215174671,0,0.060025573,-0.033742398,-0.06862301,0.08223055,-0.23730908,-0.35217345
356046.235174671,0,0.05872342,-0.03664714,-0.06160921,0.13539241,-0.25483403,-0.37100357
356046.255174671,0,0.043596536,-0.04435855,-0.07497519,0.15070748,-0.23870051,-0.39554477
356046.275174671,20000000,0.028420419,-0.052009553,-0.08840442,0.16602255,-0.22256699,-0.42008597
356046.295174671,40000000,0.013194293,-0.05960059,-0.10189694,0.18133762,-0.20643348,-0.44462717
356046.315174671,60000000,-0.0020825565,-0.06713238,-0.11545265,0.19665268,-0.19029996,-0.46916837
356046.335174671,0,-0.10069767,-0.10470247,-0.18636984,0.19532256,-0.51596504,-0.18824586
356046.355174671,20000000,-0.014164329,-0.05811265,-0.099190235,0.19462308,-0.3947267,-0.26083046
356046.375174671,0,-0.07352579,-0.07371077,-0.12250775,0.1938644,-0.4772689,-0.109821975
356046.395174671,0,-0.06963909,-0.029384732,-0.07847828,0.19225203,-0.5924228,0.051472425
356046.415174671,0,-0.022686481,0.006706357,-0.0072357655,0.17353268,-0.5625067,0.13303924
356046.435174671,20000000,0.010715783,0.056623936,0.04788673,0.13297981,-0.48980242,0.2059142
356046.455174671,0,0.017180592,0.087065816,0.087857544,0.09572254,-0.4223554,0.2584837
356046.475174671,0,0.0004670322,0.0682852,0.10221779,0.15001363,-0.40518147,0.33681363
356046.495174671,20000000,-0.016273648,0.04948151,0.116560936,0.20430472,-0.38800755,0.41514355
356046.515174671,0,-0.017816603,0.068027616,0.1167776,0.25808373,-0.3742772,0.49748325
356046.535174671,20000000,-0.01069352,0.11249882,0.107029796,0.23610161,-0.30753818,0.547497
356046.555174671,0,-0.015689611,0.15063629,0.09102887,0.16796088,-0.2841833,0.5865249
356046.575174671,0,0.014071077,0.17133865,0.10030639,0.10025059,-0.0894521,0.45717284
356046.595174671,0,0.014936686,0.14611009,0.09227419,0.1345351,-0.056247625,0.38755912
356046.615174671,20000000,0.015787363,0.12090355,0.08424914,0.1688196,-0.023043144,0.31794542
356046.635174671,40000000,0.016623199,0.09571913,0.0762313,0.20310411,0.0101613365,0.2483317
356046.655174671,60000000,0.017444462,0.07055706,0.068220556,0.23738863,0.043365818,0.17871797
356046.675174672,0,0.0077905655,0.02886489,0.06262177,0.30302453,-0.006724097,0.19254605
356046.695174672,0,0.006674528,0.0099208355,0.060154557,0.32897046,-0.051939778,0.28374112
356046.715174672,20000000,0.005572468,-0.008996457,0.05767691,0.3549164,-0.09715546,0.37493613
356046.735174083,0,0.014271796,-0.0047758888,0.05610353,0.33295202,-0.119542375,0.44727558
356046.755174083,0,0.007528782,-0.002682358,0.053137124,0.34785846,-0.15022838,0.51171213
356046.775174083,20000000,0.00078830123,-0.0005463064,0.050182402,0.3627649,-0.18091437,0.57614875
356046.795174083,0,-0.00594905,0.0016322136,0.047239006,0.37767133,-0.21160038,0.6405853
356046.815174083,20000000,-0.013678998,0.006811917,0.03734076,0.39877635,-0.2496981,0.72065777
356046.835174083,0,-0.016495883,0.011923194,0.030753851,0.43143827,-0.28714922,0.8041091
356046.855174083,0,-0.009005517,0.016254157,0.032894135,0.48634124,-0.3045314,0.867745
356046.875174084,0,-0.0028346777,0.01823628,0.033367276,0.5696559,-0.3180593,0.92984575
356046.895174084,20000000,0.0033676922,0.020343095,0.03386265,0.6529706,-0.3315872,0.9919465
356046.915174083,40000000,0.009604275,0.022574216,0.03437805,0.7362853,-0.3451151,1.0540472
356046.935174084,0,0.010224849,0.027018517,0.03373295,0.81938,-0.37234282,1.1484982
356046.955174084,0,0.017787337,0.034992963,0.033115506,0.89067185,-0.39255705,1.24874
356046.975174084,0,0.015987188,0.028947055,0.030098021,0.9764258,-0.42414233,1.3832524
356046.995174084,0,0.0082066655,0.0047433376,0.0187577,1.1234536,-0.46473372,1.6002518
356047.015174084,20000000,0.00062048435,-0.019056618,0.0073993206,1.2704813,-0.5053251,1.8172512
356047.035174084,40000000,-0.013032407,-0.037547648,-0.022106946,1.4241526,-0.5601041,2.0841732
356047.055174084,0,-0.018678308,-0.042907655,-0.047464848,1.5679781,-0.6298166,2.3674288
356047.075174084,0,0.008460581,-0.019922823,-0.050907254,1.6748796,-0.64224976,2.5685854
356047.095174084,0,0.05150792,0.016162962,-0.041481495,1.7404053,-0.6066972,2.6577284
356047.115174084,20000000,0.098273784,0.05321929,-0.028226852,1.7545747,-0.5199121,2.6026704
356047.135174084,0,0.124908015,0.063323915,-0.022512436,1.7555947,-0.45869052,2.4866703
356047.155174084,0,0.14287442,0.052585006,-0.025683582,1.7160724,-0.44844738,2.336888
356047.175174084,20000000,0.16160733,0.042763054,-0.029257596,1.67655,-0.43820423,2.187106
356047.195174084,40000000,0.18705368,0.044033766,-0.038377225,1.5509936,-0.42047715,2.0110867
356047.215174084,0,0.19569317,0.04001981,-0.05993843,1.2226573,-0.40439954,1.8337638
356047.235174084,20000000,0.20456995,0.03624484,-0.081576526,0.894321,-0.38832194,1.656441
356047.255174084,40000000,0.21369085,0.032699853,-0.10329765,0.5659847,-0.37224436,1.4791181
356047.275174084,60000000,0.22306249,0.029375136,-0.12510788,0.23764846,-0.35616675,1.3017954
356047.295174084,0,0.21564388,0.00813359,-0.14263296,-0.067444205,-0.39079463,1.1524935
356047.315174084,0,0.20237112,-0.02919662,-0.14344966,-0.27525884,-0.4592198,1.0415086
356047.335174084,20000000,0.18459848,-0.06520617,-0.14175183,-0.35046312,-0.5804022,1.0179896
356047.355174084,0,0.18912911,-0.07222295,-0.12864393,-0.3358125,-0.6856746,1.0087006
356047.375174084,0,0.18448585,-0.074367255,-0.11844146,-0.2571618,-0.710682,0.9583679
356047.395174084,20000000,0.17961669,-0.07659924,-0.108358026,-0.17851108,-0.73568934,0.90803516
356047.415174084,40000000,0.17451838,-0.07891452,-0.09839064,-0.09986039,-0.76069677,0.8577025
356047.435174084,60000000,0.16918781,-0.08130872,-0.088536024,-0.021209702,-0.78570414,0.80736977
356047.455174084,0,0.16173159,-0.07856634,-0.082522154,0.046142533,-0.82467407,0.8088761
356047.475174084,0,0.16132806,-0.06929359,-0.07633495,0.080346756,-0.820628,0.79785585
356047.495174084,0,0.14774969,-0.063058406,-0.07995778,0.08630095,-0.8251517,0.8029917
356047.515174084,20000000,0.13141762,-0.06229815,-0.083027065,0.08842411,-0.8134843,0.78647554
356047.535174084,0,0.10710327,-0.07724187,-0.09814936,0.10241528,-0.8231287,0.78491247
356047.555174084,0,0.088941455,-0.09515774,-0.10628253,0.14026946,-0.86118096,0.78269696
356047.575174084,0,0.08623728,-0.11087409,-0.10536212,0.19127658,-0.86233675,0.7565073
356047.595174084,0,0.07498783,-0.12717155,-0.11086208,0.23866025,-0.89825654,0.7593731
356047.615174084,0,0.07428691,-0.1438356,-0.10647142,0.28669992,-0.9267685,0.77776164
356047.635174084,0,0.07930392,-0.16061261,-0.09701127,0.32967457,-0.9645851,0.82074344
356047.655174084,0,0.08656353,-0.16469753,-0.0831691,0.35789832,-1.014837,0.90058076
356047.675174084,0,0.10539031,-0.1499792,-0.0524711,0.36838433,-1.0324416,0.9773144
356047.695174084,0,0.10469699,-0.1193175,-0.031018436,0.33509716,-1.0504942,1.0751833
356047.715174084,20000000,0.10381466,-0.0888415,-0.00968647,0.30181,-1.0685468,1.1730521
356047.735174084,0,0.10277286,-0.047680497,0.017918348,0.24216184,-1.0499468,1.2359527
356047.755174084,0,0.081267476,-0.012746304,0.040377498,0.17632283,-1.0354828,1.2958663
356047.775174084,0,0.06691867,0.026606381,0.067745626,0.12218274,-1.0061408,1.3403318
356047.795174084,0,0.06415433,0.08016068,0.08934498,0.055569403,-0.9193875,1.3116348
356047.815174084,0,0.056851417,0.12293059,0.0973295,-0.026069991,-0.79946667,1.2244071
356047.835174084,0,0.037699968,0.15411282,0.095471025,-0.10672217,-0.68491757,1.1113279
356047.855174084,0,0.01819545,0.16525525,0.094932675,-0.1597989,-0.5946557,0.9960773
356047.875174084,0,0.006157756,0.17376399,0.098371446,-0.17439362,-0.5012956,0.8902076
356047.895174084,20000000,-0.0041542053,0.18886882,0.096358895,-0.18469316,-0.41475064,0.77633315
356047.915174084,0,-0.0096398,0.20032316,0.08930898,-0.19351393,-0.33074933,0.66671705
356047.935174085,0,-0.007456392,0.20913088,0.080936134,-0.20619866,-0.22749563,0.52492714
356047.955174085,20000000,-0.012070268,0.19821978,0.070409894,-0.2017562,-0.14133915,0.39345098
356047.975174085,0,-0.01930821,0.17401284,0.06172949,-0.17672305,-0.0735706,0.27863878
356047.995174085,0,-0.023534149,0.14591998,0.054430842,-0.13985693,-0.03181732,0.19016892
356048.015174085,0,-0.026417226,0.1227746,0.049561024,-0.1090787,-0.0017058048,0.1264748
356048.035174085,0,-0.027535051,0.10326868,0.046015024,-0.09828636,0.010679023,0.102214664
356048.055174085,20000000,-0.028656334,0.08376694,0.042464733,-0.087494016,0.023063853,0.07795453
356048.075174085,40000000,-0.026548952,0.06927103,0.040346265,-0.08343604,0.038083665,0.060759485
356048.095174085,0,-0.02582398,0.0604167,0.04333806,-0.07388818,0.040309295,0.047658075
356048.115174085,20000000,-0.025100112,0.051564276,0.046326697,-0.06434033,0.04253492,0.03455666
356048.135174085,40000000,-0.024377465,0.04271406,0.049312174,-0.054792475,0.044760548,0.021455249
356048.155174085,60000000,-0.029370934,0.039098084,0.047308683,-0.05525979,0.033402085,0.0059742257
356048.175174085,0,-0.028083682,0.04162073,0.044154406,-0.07788269,0.05423759,-0.029852927
356048.195174085,20000000,-0.026794374,0.04414457,0.04099834,-0.100505605,0.07507309,-0.06568009
356048.215174085,40000000,-0.02550307,0.04666984,0.037840843,-0.12312851,0.0959086,-0.10150724
356048.235174085,60000000,-0.024209619,0.049196184,0.034681678,-0.14575142,0.11674409,-0.13733439
356048.255174085,0,-0.025597066,0.048871994,0.029644072,-0.17150408,0.1484195,-0.1750324
356048.275174085,0,-0.02871281,0.0391894,0.023606598,-0.18185382,0.17765085,-0.2145501
356048.295174085,20000000,-0.029372483,0.02251184,0.01800102,-0.16462915,0.20451994,-0.25311655
356048.315174085,0,-0.023055315,0.012519658,0.018575013,-0.14189419,0.2607808,-0.31828353
356048.335174085,20000000,-0.030412465,0.0044659376,0.011428654,-0.13662131,0.27259082,-0.33686352
356048.355174085,0,-0.02227673,0.00561893,0.016280293,-0.15540828,0.29731238,-0.35451508
356048.375174085,20000000,-0.014148831,0.0067712665,0.021134913,-0.17419524,0.3220339,-0.37216663
356048.395174085,0,-0.014934778,0.0071336627,0.017894208,-0.2079148,0.3226203,-0.36127552
356048.415174085,20000000,-0.00522241,0.014260054,0.01767242,-0.2440396,0.34463617,-0.37461284
356048.435174085,0,0.0025962293,0.013653278,0.015918612,-0.26053485,0.36667097,-0.4037463
356048.455174085,0,0.008018255,0.01622212,0.013251543,-0.26851967,0.3885839,-0.42830244
356048.475174085,0,0.008466721,0.018204331,0.0048392415,-0.2792775,0.3946842,-0.430315
356048.495174085,0,0.0060019195,0.014958024,-0.0009419322,-0.2744289,0.40388572,-0.43397295
356048.515174085,20000000,0.0035416484,0.01170665,-0.0067310333,-0.2695803,0.41308725,-0.43763095
356048.535174085,40000000,0.0010862052,0.008449912,-0.0125284195,-0.26473173,0.42228875,-0.44128892
356048.575174085,0,-0.020051867,-0.00415498,-0.012565792,-0.21994404,0.40676695,-0.40449622
356048.595174085,0,-0.020153105,0.0022647977,-0.0076733828,-0.2147101,0.40243876,-0.40425465
356048.615174085,0,-0.02073571,0.0046925545,-0.0032511353,-0.21731023,0.41369158,-0.42153275
356048.635174085,0,-0.019103467,0.00922668,0.0016394258,-0.22462739,0.41178802,-0.45468432
356048.655174085,0,-0.020930469,0.008365452,0.005350709,-0.242272,0.3980805,-0.48633406
356048.675174085,0,-0.021380454,0.00414145,0.012426913,-0.25370708,0.37420684,-0.48225203
356048.695174085,0,-0.01823318,0.0077708364,0.017648876,-0.28132927,0.3468208,-0.4498217
356048.715174085,20000000,-0.0064202845,0.018620133,0.02599746,-0.30748647,0.36442474,-0.4388342
356048.735174085,0,-0.010284662,0.01747042,0.027249277,-0.3083609,0.37361512,-0.42203
356048.755174085,20000000,-0.014133692,0.016324341,0.02849251,-0.3092353,0.3828055,-0.40522584
356048.775174085,40000000,-0.021745592,0.010273397,0.026676595,-0.2785483,0.3877993,-0.39323112
356048.795174085,0,-0.021844864,0.004229307,0.024655998,-0.23743728,0.38981444,-0.38158023
356048.815174085,0,-0.022471368,0.0035079718,0.021484196,-0.20317562,0.3954835,-0.3734413
356048.835174085,0,-0.026296496,0.002144754,0.016922414,-0.17907356,0.3916443,-0.35715288
356048.855174085,0,-0.029581964,-0.003201723,0.016198456,-0.15536611,0.37566245,-0.3309494
356048.875174085,20000000,-0.032646537,-0.010430515,0.019700527,-0.12759401,0.35038304,-0.29274645
356048.895174085,0,-0.031324804,-0.011020958,0.027030468,-0.10224302,0.31512886,-0.25630495
356048.915174085,0,-0.02338779,-0.009473383,0.034435987,-0.089460805,0.29546234,-0.21789628
356048.935174085,20000000,-0.015460372,-0.007934272,0.041834176,-0.0766786,0.27579582,-0.17948762
356048.955174085,0,-0.0034267902,0.0040230155,0.050881863,-0.08698361,0.30122304,-0.13732056
356048.975174085,0,-0.0063055158,0.0102087855,0.04742253,-0.08085605,0.31771415,-0.101272285
356048.995174085,20000000,-0.0091921985,0.01638627,0.043937266,-0.07472848,0.33420527,-0.06522401
356049.015174085,40000000,-0.012086391,0.022555113,0.04042566,-0.06860091,0.3506964,-0.029175732
356049.035174085,60000000,-0.009790599,0.03704697,0.033963323,-0.05207418,0.34646207,0.0015979148
356049.055174086,0,-0.0040851533,0.052217543,0.031681955,-0.032078683,0.35971275,-0.0031088898
356049.075174086,0,-0.00784567,0.058335125,0.025014818,-0.0060077757,0.35097936,-0.0042913286
356049.095174086,0,-0.0004886091,0.056363642,0.020717084,0.038934033,0.33795094,-0.02284813
356049.115174086,0,0.0045199096,0.055611014,0.016487896,0.079335175,0.33543903,-0.06054917
356049.135174086,20000000,-0.0055268407,0.04938376,0.009088278,0.1176351,0.29497975,-0.06363603
356049.155174086,0,-0.009738892,0.04038179,0.0061435103,0.15122162,0.24663506,-0.04194379
356049.175174086,0,-0.012563467,0.028710723,0.015214443,0.18800089,0.19876608,-0.0057038106
356049.195174086,0,-0.011495441,0.022810936,0.025070667,0.22065799,0.15486676,0.047844376
356049.215174086,0,-0.015298933,0.02421534,0.029972613,0.23166445,0.14759912,0.08090565
356049.235174086,20000000,-0.019108117,0.025643468,0.03485173,0.24267091,0.14033148,0.11396693
356049.255174086,40000000,-0.022923052,0.027095199,0.03970772,0.25367737,0.13306382,0.14702821
356049.275174086,60000000,-0.0281955,0.031736076,0.04251361,0.24729311,0.14984259,0.16497748
356049.295174086,0,-0.046654224,0.037795782,0.029650092,0.21650241,0.12634145,0.19860986
356049.315174086,20000000,-0.04436308,0.043950856,0.03452468,0.1896989,0.1522331,0.184824
356049.335174086,0,-0.050675035,0.043723583,0.03316933,0.17053041,0.15507351,0.15822421
356049.355174086,20000000,-0.05699092,0.043518364,0.03179699,0.15136191,0.15791391,0.13162443
356049.375174086,40000000,-0.049169034,0.030985713,0.041588962,0.16024484,0.1596158,0.10335449
356049.395174086,0,-0.0318017,0.029755771,0.052021563,0.14900209,0.21799816,0.059244428
356049.415174086,0,-0.023133129,0.026575923,0.05208969,0.12474092,0.25564682,0.036802236
356049.435174086,0,-0.011190683,0.025092721,0.04741645,0.10458969,0.3028879,0.017783275
356049.455174086,20000000,0.0007315874,0.023612678,0.04270321,0.084438466,0.35012895,-0.0012356862
356049.475174086,40000000,0.012634009,0.022135675,0.0379498,0.06428724,0.39737,-0.020254645
356049.495174086,60000000,0.02451682,0.020661712,0.033156276,0.04413601,0.44461107,-0.039273605
356049.515174086,80000000,0.029300436,0.021083415,0.017332435,0.02611671,0.47711557,-0.059300564
356049.535174086,0,0.033035636,0.020204306,0.0046987534,0.045849018,0.4842078,-0.07352375
356049.555174086,20000000,0.036739603,0.01931709,-0.008002698,0.06558132,0.49130005,-0.08774695
356049.575174086,40000000,0.04041311,0.018421412,-0.020772338,0.085313626,0.49839228,-0.101970136
356049.595174086,0,0.041149616,0.014993906,-0.026296318,0.12221797,0.49284777,-0.11842267
356049.615174086,0,0.042041004,0.014553249,-0.024191558,0.15933084,0.47571415,-0.13621312
356049.675174086,0,0.044400856,0.013245881,-0.018292665,0.2706695,0.4243133,-0.18958448
356049.695174086,20000000,0.03774552,0.012235224,-0.014797509,0.29435655,0.39740327,-0.19285777
356049.715174086,0,0.037628338,0.014572501,-0.012151241,0.29700613,0.39508718,-0.19685578
356049.735174086,20000000,0.03745264,0.016920209,-0.009572923,0.29965574,0.39277112,-0.2008538
356049.775174086,0,0.051748574,0.03210497,-0.015916586,0.28387806,0.41416153,-0.29735836
356049.795174086,0,0.05601187,0.027498484,-0.021546364,0.28568104,0.4171004,-0.37571564
356049.815174086,20000000,0.051418588,0.015303016,-0.02945584,0.29721838,0.39449313,-0.43589973
356049.835174086,0,0.04614438,0.0027031302,-0.038728654,0.30836427,0.3480746,-0.4733675
356049.855174086,0,0.052440405,-0.0029524267,-0.041658282,0.30840126,0.31163755,-0.5233483
356049.875174086,20000000,0.060561404,-0.0077682734,-0.046756923,0.29071417,0.28758118,-0.6043534
356049.895174086,0,0.047376573,-0.02238679,-0.05470985,0.26399696,0.23764679,-0.6724816
356049.935174086,0,0.033274263,-0.051850945,-0.072176635,0.15609366,0.13237464,-0.75633466
356049.955174086,20000000,0.030412495,-0.063177764,-0.08280337,0.07566549,0.11267613,-0.81180745
356049.975174086,40000000,0.027457178,-0.0744153,-0.09342754,-0.0047626644,0.09297762,-0.8672803
356049.995174086,0,0.04145333,-0.0710195,-0.1016947,-0.10087385,0.08125834,-0.91617167
356050.015174086,0,0.0553063,-0.067783624,-0.10503268,-0.18601598,0.08401249,-0.9733181
356050.035174086,20000000,0.06987333,-0.0647794,-0.10194594,-0.25647244,0.09483469,-1.0562856
356050.055174086,0,0.063848436,-0.07340893,-0.09184766,-0.2993453,0.08396815,-1.1247907
356050.075174086,0,0.06328137,-0.07321936,-0.079423726,-0.33279037,0.046718232,-1.1412919
356050.095174087,20000000,0.06271601,-0.07279253,-0.06699318,-0.36623544,0.009468317,-1.1577929
356050.115174087,0,0.07428321,-0.0653308,-0.05900663,-0.42071068,0.0052424483,-1.1802183
356050.135174087,0,0.0703029,-0.063124925,-0.05541128,-0.45799714,0.02553207,-1.2038107
356050.155174087,20000000,0.06639749,-0.060618162,-0.05181992,-0.4952836,0.04582169,-1.227403
356050.175174087,40000000,0.06255901,-0.05780855,-0.04822886,-0.53257006,0.06611131,-1.2509954
356050.195174087,60000000,0.058779642,-0.054694653,-0.04463482,-0.5698565,0.08640093,-1.2745876
356050.215174087,80000000,0.055051327,-0.051275015,-0.041033864,-0.60714304,0.106690556,-1.29818
356050.235174087,100000000,0.0546571,-0.040890753,-0.036863506,-0.6222068,0.11180121,-1.3194034
356050.255174087,0,0.04898089,-0.032679528,-0.04073149,-0.63486624,0.13932477,-1.3990355
356050.275174087,20000000,0.04334116,-0.024112612,-0.044573724,-0.6475257,0.16684833,-1.4786675
356050.295174087,40000000,0.037727714,-0.015189558,-0.04838574,-0.66018516,0.19437188,-1.5582995
356050.335174087,0,0.036656618,-0.04338938,-0.06433827,-0.7221055,0.2459003,-1.8372289
356050.355174087,20000000,0.030991375,-0.069910735,-0.07615447,-0.7490314,0.26117468,-1.9798057
356050.375174087,0,0.027248949,-0.091575414,-0.08175355,-0.7769625,0.2322474,-2.0497458
356050.395174087,0,0.032451868,-0.08723125,-0.07194126,-0.8126458,0.14316332,-2.030253
356050.415174087,0,0.07994807,-0.045399874,-0.030716836,-0.88484895,0.22046037,-2.1300764
356050.435174087,0,0.041835427,-0.040793866,-0.05982685,-0.9834776,0.21691748,-2.105375
356050.455174087,0,-0.010094285,-0.035743505,-0.07252985,-1.0683439,0.16753924,-1.991052
356050.475174087,20000000,-0.0620704,-0.02992794,-0.085139394,-1.15321,0.118161,-1.876729
356050.495174087,40000000,-0.117138445,-0.03045535,-0.04235691,-1.1136569,-0.06441965,-1.610558
356050.515174087,0,-0.09056574,-0.013136625,0.066663265,-0.9483957,-0.07666385,-1.4703374
356050.535174087,20000000,-0.068133175,-0.016272306,0.13860923,-0.7138591,0.027841292,-1.4181371
356050.555174087,0,-0.075306356,-0.02993998,0.15055579,-0.5033319,0.20206812,-1.4031659
356050.575174087,0,-0.09774721,-0.019569546,0.12841177,-0.48645633,0.28720826,-1.2876275
356050.595174087,20000000,-0.12037158,-0.009033978,0.10636735,-0.46958077,0.37234837,-1.172089
356050.615174087,40000000,-0.12540245,-0.011196196,0.11308223,-0.520466,0.49836782,-1.1047597
356050.635174087,0,-0.1416769,-0.03371665,0.11066079,-0.5624568,0.56089586,-1.0118289
356050.655174087,20000000,-0.12738413,-0.043542057,0.1286332,-0.5798182,0.6172383,-0.95016843
356050.675174087,0,-0.0971216,-0.040011674,0.14489943,-0.6086071,0.69892484,-0.95638436
356050.695174087,0,-0.07259208,-0.036967665,0.14375514,-0.6507081,0.7846031,-1.01063
356050.715174087,20000000,-0.069823086,-0.04931745,0.13199878,-0.69590807,0.7953546,-1.0283437
356050.735174087,0,-0.06462836,-0.07141909,0.13006741,-0.7167452,0.79144984,-1.023943
356050.755174087,0,-0.06959903,-0.09327537,0.1269719,-0.7042131,0.76657444,-0.98610514
356050.775174087,0,-0.076958716,-0.100042254,0.11876291,-0.66659474,0.70818007,-0.8917729
356050.795174087,20000000,-0.084337175,-0.10690233,0.110494494,-0.6289764,0.64978564,-0.79744077
356050.815174087,40000000,-0.07433504,-0.100109726,0.11580527,-0.5768282,0.63589525,-0.7292634
356050.835174087,0,-0.07382393,-0.09190005,0.12145883,-0.51547265,0.61148435,-0.6435187
356050.855174087,0,-0.07245439,-0.0784283,0.13067281,-0.45403042,0.6184407,-0.57621026
356050.875174087,0,-0.084245086,-0.06271741,0.12197214,-0.4060178,0.5730955,-0.4559733
356050.895174087,20000000,-0.07212955,-0.02839461,0.12207723,-0.37685722,0.5764133,-0.3602857
356050.915174087,0,-0.058368266,0.016942322,0.10431707,-0.38595986,0.58341235,-0.28138074
356050.935174087,0,-0.03201151,0.060143262,0.07693833,-0.4073427,0.64126086,-0.291033
356050.955174087,0,-0.021495253,0.07215893,0.037909865,-0.38380295,0.67615587,-0.3493888
356050.975174087,0,-0.019991308,0.05937326,0.009983361,-0.28142667,0.6509525,-0.4290468
356050.995174087,0,-0.01150021,0.031473905,0.0016198754,-0.103029355,0.62391335,-0.54080194
356051.015174087,20000000,-0.039274693,-0.010584414,-0.049195766,0.06718403,0.72266734,-0.7094655
356051.035174087,0,-0.20845005,-0.10961747,-0.2438268,0.14251824,0.2716862,-0.4616204
356051.055174087,0,-0.14168167,-0.101843804,-0.15840757,0.24937686,0.07325436,-0.23634182
356051.075174087,20000000,-0.08954114,-0.030662447,-0.18418813,0.12065023,0.04808107,-0.12544972
356051.095174087,0,-0.0320006,0.07382935,-0.17326963,-0.098489106,-0.0413071,-0.015517913
356051.115174087,0,0.05043289,0.16035542,-0.11750281,-0.3369226,0.04059042,-0.09799922
356051.135174087,20000000,0.079487175,0.19194773,-0.10121614,-0.49660692,0.045053948,-0.12854315
356051.155174088,0,0.13542277,0.20732734,-0.08962786,-0.549161,0.08498451,-0.22694203
356051.175174088,0,0.19177458,0.20798624,-0.08968037,-0.5379941,0.16339542,-0.35455203
356051.195174088,20000000,0.23139182,0.20998755,-0.09466994,-0.504432,0.23759288,-0.522374
356051.215174088,0,0.23104776,0.17425433,-0.09987795,-0.4410157,0.32632637,-0.6852275
356051.235174088,0,0.14213866,0.08462855,-0.13891947,-0.31244934,0.15984565,-0.60109335
356051.255174088,20000000,0.10651633,0.01096347,-0.12533677,-0.12016137,-0.068648115,-0.43220878
356051.275174088,0,0.119693816,-0.038009584,-0.08275837,0.09808172,-0.21140462,-0.30219755
356051.295174088,0,0.13851464,-0.061252534,-0.04545027,0.26885033,-0.299793,-0.18796524
356051.315174088,0,0.16422796,-0.057932615,-0.017213881,0.3428911,-0.28446296,-0.15526742
356051.335174088,0,0.15222248,-0.073164016,-0.008222163,0.32317567,-0.28274283,-0.10910158
356051.355174088,20000000,0.140203,-0.08838412,0.00070154667,0.3034602,-0.28102267,-0.06293574
356051.375174088,0,0.12725118,-0.106037736,0.0055146813,0.27950615,-0.2895553,0.01658456
356051.395174088,20000000,0.11207473,-0.11110553,-0.0008671284,0.25051618,-0.3074669,0.09457252
356051.415174088,40000000,0.106040835,-0.099243194,-0.007986605,0.21303761,-0.34836897,0.16552044
356051.435174088,0,0.11531356,-0.07468155,-0.0021300316,0.18302993,-0.35498494,0.1902605
356051.455174088,0,0.12879151,-0.045956284,0.0005853176,0.14993188,-0.32551718,0.14620213
356051.475174088,20000000,0.12534449,-0.029951572,-0.0046694875,0.12879139,-0.29153517,0.07728132
356051.495174088,0,0.10430658,-0.03185472,-0.025616407,0.12526152,-0.29538372,0.026876736
356051.515174088,0,0.090848655,-0.028228492,-0.037453532,0.127858,-0.3128455,-0.006304741
356051.535174088,20000000,0.07966435,-0.016679972,-0.05436462,0.11419681,-0.3350707,-0.062205374
356051.555174088,0,0.06538659,-0.02230966,-0.07363719,0.11126042,-0.38131502,-0.117465764
356051.575174088,0,0.07182801,-0.034877717,-0.06262648,0.1559609,-0.42149052,-0.15918055
356051.595174088,0,0.09271175,-0.03772372,-0.048539817,0.20346588,-0.40994924,-0.23419896
356051.615174088,20000000,0.109108895,-0.036334395,-0.02827841,0.23092872,-0.3830401,-0.2778436
356051.635174088,0,0.101567775,-0.025246143,-0.0424847,0.18885599,-0.33859888,-0.2808198
356051.655174088,20000000,0.07384229,-0.014349192,-0.07271302,0.09389681,-0.3615182,-0.22072916
356051.675174088,0,0.043266714,-0.011566877,-0.09357345,-0.0015953481,-0.4648628,-0.13906178
356051.695174088,0,0.03384596,-0.0041098,-0.059716523,-0.040366214,-0.4373874,-0.13064772
356051.715174088,0,-0.048309088,-0.019851834,-0.11994207,-0.10132696,-0.2973928,-0.17897226
356051.735174088,20000000,-0.22826833,-0.072446555,-0.27040648,-0.16334885,-0.68366814,0.24092738
356051.755174088,0,-0.1681838,0.040306598,-0.18835992,-0.28427014,-0.68181235,0.35217148
356051.775174088,0,-0.17070788,0.116879284,-0.07282925,-0.32712424,-0.75216025,0.51617604
356051.795174088,20000000,-0.13783145,0.15197733,0.06635845,-0.20616242,-0.72455865,0.50969636
356051.815174088,0,-0.08873057,0.1354022,0.16583729,0.030391797,-0.6273056,0.49641052
356051.835174088,20000000,-0.08842909,0.13866425,0.15386915,0.10490317,-0.4812377,0.45845237
356051.855174088,40000000,-0.08819336,0.1418882,0.14188606,0.17941454,-0.33516982,0.42049423
356051.875174088,0,-0.030970514,0.14917606,0.17925686,0.14460266,-0.12552886,0.28002715
356051.895174088,20000000,0.026226342,0.15645838,0.2166346,0.10979077,0.08411208,0.13956004
356051.915174088,40000000,-0.033247888,0.09310338,0.1418426,0.092610575,0.05558241,0.20773368
356051.935174088,0,-0.00450933,0.09654161,0.13517988,0.044176973,0.13695827,0.18009323
356051.955174088,20000000,0.024218738,0.09999141,0.12851083,-0.0042566247,0.21833415,0.1524528
356051.975174088,0,0.035752356,0.10006586,0.10466111,-0.07730892,0.290856,0.11573394
356051.995174088,0,0.0010225773,0.06254238,0.06320286,-0.105609894,0.24006127,0.16735367
356052.015174088,0,-0.026286542,0.024979472,0.034145474,-0.10379645,0.10254714,0.25276712
356052.035174088,20000000,-0.018182278,-0.0009124279,0.032271206,-0.028443247,0.043533042,0.28227857
356052.055174088,0,-0.009521723,-0.02163437,0.030551374,0.07861417,-0.05999632,0.3159109
356052.075174088,0,0.03191763,-0.018402308,0.06261891,0.20090923,-0.047928087,0.26438215
356052.095174088,0,0.050931036,0.0016693175,0.08346075,0.26574242,-0.104475066,0.3080985
356052.115174088,0,0.07935184,0.037756026,0.10516906,0.28462878,-0.09134434,0.32513803
356052.135174088,0,0.08346653,0.077332795,0.10197091,0.2549325,-0.13332336,0.4194751
356052.155174088,20000000,0.08756745,0.11692411,0.098786116,0.2252362,-0.17530237,0.5138122
356052.175174088,0,0.09162021,0.13724795,0.085497975,0.21124706,-0.05751816,0.44492272
356052.195174088,0,-0.019517183,0.06408456,-0.049598873,0.21803646,-0.015573241,0.45948485
356052.215174088,20000000,-0.16128087,-0.048923045,-0.18012208,0.35508513,-0.5511657,0.944723
356052.235174089,0,-0.014864683,0.045476884,-0.09997445,0.4440518,-0.36879718,0.8412598
356052.255174089,20000000,0.13145268,0.13989347,-0.019764483,0.53301847,-0.18642868,0.7377965
356052.275174089,0,0.16092974,0.17537203,-0.057547152,0.4104943,-0.11836503,0.5933806
356052.295174089,20000000,0.19038802,0.21090725,-0.09530252,0.28797016,-0.050301366,0.4489646
356052.315174089,0,0.19827345,0.18536684,-0.12900949,0.20677412,-0.020950751,0.31939304
356052.335174089,0,0.17702478,0.13468903,-0.17202222,0.20214403,-0.11048068,0.29436678
356052.355174089,0,0.17571843,0.103459775,-0.19287926,0.24956629,-0.24542354,0.3161169
356052.375174089,0,0.19014177,0.098208815,-0.19896054,0.29284632,-0.3527041,0.3055268
356052.395174089,0,0.19058368,0.092208296,-0.19074655,0.3113892,-0.43385524,0.27664724
356052.415174089,20000000,0.19100884,0.08616996,-0.18257499,0.3299321,-0.51500636,0.2477677
356052.435174089,40000000,0.17004892,0.06577155,-0.16749972,0.35565907,-0.6361277,0.27603218
356052.455174089,0,0.15896267,0.049529105,-0.13516188,0.39094725,-0.745168,0.31004417
356052.475174089,20000000,0.1496076,0.034273773,-0.09722459,0.4470764,-0.8524983,0.36250746
356052.495174089,0,0.15276724,0.023773551,-0.052259743,0.51667756,-0.91451037,0.4004119
356052.515174089,20000000,0.1576398,0.019253016,-0.010791957,0.5889825,-0.9265816,0.41395503
356052.535174089,0,0.1593858,0.024488121,0.015918314,0.6161756,-0.87527764,0.3941213
356052.555174089,20000000,0.16105676,0.029584974,0.042448282,0.6433687,-0.82397366,0.37428755
356052.595174089,0,0.16439909,0.058457613,0.08126646,0.5898523,-0.56653655,0.23358007
356052.615174089,0,0.1490379,0.066118,0.06352872,0.505956,-0.40810817,0.1460113
356052.635174089,0,0.11877495,0.059440106,0.020246804,0.4036035,-0.25912637,0.08232217
356052.655174089,0,0.08242893,0.03681782,-0.03892505,0.30932736,-0.12509781,0.064643554
356052.675174089,0,0.039601147,-0.014085025,-0.09705067,0.27703595,-0.022927381,0.12302239
356052.695174089,0,0.0045351386,-0.07665256,-0.110364854,0.38307238,0.013018504,0.3799361
356052.715174089,20000000,-0.017706156,-0.12711245,-0.086710215,0.63900924,0.062460724,0.7438348
356052.735174089,0,-0.03220123,-0.17807129,-0.059968174,1.0470831,0.017758291,1.253499
356052.755174089,0,0.00072419643,-0.20109798,-0.011984885,1.53197,0.046340965,1.6864176
356052.775174089,0,0.0144972205,-0.20370269,-0.00037497282,1.9683384,0.06990851,2.055603
356052.795174089,0,0.019427657,-0.19748594,0.0064899325,2.3015423,0.084698536,2.3770645
356052.815174089,0,0.027031124,-0.15900935,0.01086694,2.481746,0.11878132,2.6139693
356052.835174089,20000000,0.03733933,-0.090919316,0.021965802,2.4888744,0.18007638,2.7308679
356052.855174089,0,0.040937603,-0.02392906,0.05036217,2.3820739,0.29303497,2.7008061
356052.875174089,0,0.010891855,0.025664747,0.06344414,2.2003362,0.36225227,2.637492
356052.895174089,20000000,-0.01750356,0.06813809,0.06503326,1.9844632,0.40274912,2.577838
356052.915174089,0,-0.034899592,0.11613098,0.0531919,1.7383784,0.43263003,2.4878118
356052.935174089,0,-0.042476296,0.14900616,0.035339177,1.4885018,0.46700314,2.3691962
356052.955174089,0,-0.048329145,0.16529244,0.024067879,1.291894,0.47450384,2.230746
356052.975174089,0,-0.04363352,0.18479565,0.020973325,1.161868,0.47444874,2.0332432
356052.995174089,20000000,-0.043597996,0.19658202,0.023120701,1.0844309,0.4476611,1.787824
356053.015174089,0,-0.04707226,0.20900503,0.018317223,1.0042998,0.3652761,1.5252461
356053.035174089,0,-0.042366743,0.22617435,0.031956315,0.9006375,0.28922132,1.1957134
356053.055174089,20000000,-0.05064535,0.22759151,0.0439049,0.77102786,0.17785773,0.91130966
356053.075174089,0,-0.04681745,0.22355267,0.06300086,0.6240256,0.088489205,0.6613116
356053.095174089,0,-0.03739682,0.21489257,0.08075422,0.4774294,0.022756465,0.46058843
356053.115174089,20000000,-0.022537708,0.20853755,0.09514886,0.33462697,-0.0013318826,0.2969942
356053.135174089,0,-0.00863415,0.20339808,0.09799218,0.18890065,0.0065602222,0.15235552
356053.155174089,0,0.0039305687,0.18323863,0.090328276,0.07402276,0.010932468,0.043719344
356053.175174089,0,0.019086212,0.14026302,0.09011465,0.0450031,-0.0063684657,-0.019721605
356053.195174089,20000000,0.049817234,0.09999457,0.102546096,0.08741084,0.09152848,-0.18403482
356053.215174089,0,0.012586415,0.012213767,0.039307654,0.12229596,0.29009297,-0.33174956
356053.235174089,0,-0.12525454,-0.111324206,-0.119335175,0.13147703,-0.042798012,0.11091012
356053.255174089,0,-0.010609299,-0.037668303,-0.055488408,0.076423496,0.004041519,0.118618585
356053.275174089,0,0.028304428,-0.009608418,-0.01952821,0.018037897,0.10172041,0.041345842
356053.295174089,20000000,0.0072528124,-0.040897727,-0.060150266,-0.02593119,0.06143476,0.06501182
356053.315174090,0,0.010714829,-0.08198924,-0.090501726,-0.026249887,-0.056419097,0.08977893
356053.335174090,0,0.05373752,-0.11428097,-0.07008964,0.0248203,-0.09356852,0.05138238
356053.355174090,20000000,0.0897557,-0.13043138,-0.04584658,0.084688045,-0.047438703,-0.01943918
356053.375174090,0,0.08907315,-0.1370286,-0.05571103,0.09046777,0.0023492575,-0.025251409
356053.395174090,20000000,0.07533024,-0.12735948,-0.087194264,0.008047208,0.022965752,0.037119843
356053.415174090,0,0.07451877,-0.114530355,-0.09989631,-0.10084039,0.07655048,0.088248655
356053.435174090,0,0.06963788,-0.10204212,-0.10770422,-0.19527403,0.08895424,0.13983464
356053.455174090,0,0.07575858,-0.08555214,-0.09294462,-0.22888142,0.10068679,0.15203184
356053.475174090,0,0.087338716,-0.06662649,-0.0830431,-0.22959611,0.11607541,0.13739997
356053.495174090,0,0.090677366,-0.05118619,-0.08603203,-0.21392684,0.106394455,0.13162284
356053.515174090,0,0.09679583,-0.0399265,-0.086716175,-0.18158574,0.098578975,0.11642821
356053.535174090,20000000,0.09784375,-0.03696713,-0.08628452,-0.13447496,0.051575754,0.10610208
356053.555174090,0,0.10009688,-0.039762884,-0.078246534,-0.0730758,0.010077279,0.064934514
356053.575174090,0,0.100422546,-0.044262767,-0.076780915,-0.01839928,-0.03431645,0.003191959
356053.595174090,20000000,0.093658745,-0.06285466,-0.0753445,0.03246123,-0.06932625,-0.0627705
356053.615174090,0,0.07962842,-0.09665239,-0.07358283,0.08634032,-0.12867737,-0.11698787
356053.635174090,0,0.08242917,-0.13898236,-0.054331183,0.14563203,-0.13649282,-0.18447842
356053.655174090,20000000,0.07377742,-0.17960493,-0.052176356,0.1596731,-0.17067167,-0.16877395
356053.675174090,0,0.09902398,-0.17492703,-0.031469762,0.09940384,-0.16863415,-0.1623279
356053.695174090,0,0.12792276,-0.12985371,-0.01679027,-0.08247964,-0.069861926,-0.21637502
356053.715174090,20000000,0.098541126,-0.10332543,-0.04345739,-0.33627468,-0.06943433,-0.21060455
356053.735174090,0,0.06313133,-0.09962402,-0.06046301,-0.5494372,-0.15112919,-0.11169471
356053.755174090,0,0.05914575,-0.06437293,-0.06024754,-0.7219566,-0.23456962,-0.05075274
356053.775174090,20000000,0.06388867,-0.029296726,-0.04237199,-0.8340537,-0.2628503,-0.09705347
356053.795174090,0,0.054713666,-0.014879435,-0.029284,-0.85956186,-0.29581028,-0.13629593
356053.815174090,0,0.048062652,-0.01003027,-0.016915083,-0.79027957,-0.3131711,-0.18100294
356053.835174090,20000000,0.046716034,-0.009536982,-0.016520143,-0.6429017,-0.3185829,-0.20610298
356053.855174090,0,0.043715745,-0.006003529,-0.03858328,-0.47281963,-0.33844563,-0.203486
356053.875174090,0,0.05828756,0.0081086755,-0.05839616,-0.3261066,-0.34876072,-0.24245976
356053.895174090,20000000,0.075620085,0.0072759986,-0.052716434,-0.18867297,-0.34560335,-0.30635962
356053.915174090,0,0.08164543,-0.020478517,-0.033504426,-0.03179407,-0.35629076,-0.3185078
356053.935174090,0,0.096410215,-0.03474638,-0.0057083964,0.09645341,-0.38412648,-0.32342255
356053.955174090,20000000,0.112315,-0.056743205,0.036590576,0.21543583,-0.39312217,-0.32733268
356053.975174090,0,0.121923685,-0.07582763,0.07658988,0.30444682,-0.37356845,-0.36366144
356053.995174090,0,0.092220664,-0.11879188,0.07758349,0.3694477,-0.37651595,-0.29438916
356054.015174090,20000000,0.071994394,-0.15078671,0.06228715,0.41221908,-0.26663834,-0.23810573
356054.035174090,0,0.011711419,-0.1763695,0.0022823215,0.4312136,-0.25083852,0.020409271
356054.055174090,0,-0.013829261,-0.14141352,-0.058504343,0.33744535,0.01075536,0.094827436
356054.075174090,0,-0.1510101,-0.12637283,-0.12526709,0.2901602,-0.3151423,0.72731733
356054.095174090,0,-0.091670126,0.002090931,0.019548178,0.34929156,-0.2106788,1.0068152
356054.115174090,0,-0.11313185,0.10237166,0.021124363,0.41076,-0.14077987,1.3384756
356054.135174090,20000000,-0.1148853,0.21702716,-0.06818378,0.39397573,-0.055491276,1.4281509
356054.155174090,0,-0.09906393,0.27888548,-0.14207333,0.37770885,0.09471337,1.1866136
356054.175174090,20000000,-0.11487183,0.27231,-0.16766751,0.4256671,0.16359916,0.9069041
356054.195174090,0,-0.120756686,0.25434476,-0.13765568,0.5086737,0.0943403,0.6642791
356054.215174090,0,-0.086209595,0.2268847,-0.06676239,0.5812025,0.036047414,0.39304748
356054.235174090,0,-0.054488063,0.17089304,-0.01559943,0.60333383,-0.057369567,0.17498913
356054.255174090,20000000,-0.021858037,0.08840299,0.039271116,0.6090843,-0.15051682,0.034069136
356054.275174090,0,0.0043402016,0.017007083,0.09792149,0.59938526,-0.25500733,0.034103043
356054.295174090,20000000,0.0418213,-0.0068094134,0.153674,0.54778564,-0.28248936,0.07783474
356054.315174090,0,0.06503081,-0.0067855716,0.18287301,0.4553533,-0.26466236,0.14820918
356054.335174090,0,0.062366217,-0.0005329251,0.18633235,0.35613132,-0.21428555,0.23371509
356054.355174090,20000000,0.045900613,0.010425925,0.17892301,0.28239793,-0.17857446,0.3258146
356054.375174090,0,0.03153044,0.0359309,0.16594493,0.22215883,-0.12632936,0.396644
356054.395174091,0,0.017109483,0.07357684,0.14806777,0.17155443,-0.08737838,0.45533425
356054.415174091,0,0.022055984,0.11837894,0.13332999,0.12320647,0.056597903,0.3921256
356054.435174091,20000000,-0.020500481,0.12064803,0.07320696,0.08345858,0.15085158,0.31331098
356054.455174091,0,-0.059274763,0.10823226,0.027393162,0.089983545,0.16473818,0.22648162
356054.475174091,0,-0.094640136,0.08071798,0.006934285,0.15359116,0.087711856,0.1833207
356054.495174091,20000000,-0.09101355,0.079179585,0.030359685,0.23259492,0.06940199,0.073031716
356054.515174091,0,-0.12027833,0.06971395,0.029128313,0.282042,-0.028598212,0.049156293
356054.535174091,0,-0.09997383,0.069399506,0.056852877,0.31843835,-0.07531308,-0.049540453
356054.555174091,20000000,-0.09126595,0.05004993,0.086838365,0.3464885,-0.114141375,-0.15017347
356054.575174091,0,-0.06981358,0.035792947,0.120830595,0.3331772,-0.015341811,-0.30809918
356054.595174091,20000000,-0.11474338,-0.0017178655,0.069654465,0.2220856,-0.021974646,-0.30558762
356054.615174091,0,-0.10627875,0.0028802007,0.050799966,0.0541548,-0.065863684,-0.22189566
356054.635174091,0,-0.012107432,0.06368597,0.094377995,-0.1456394,0.13770668,-0.38552988
356054.655174091,20000000,0.022163391,0.07301448,0.06237763,-0.35111314,0.38348302,-0.5842785
356054.675174091,0,0.018184125,0.053408384,-0.013956666,-0.55554354,0.51735365,-0.7312853
356054.695174091,0,0.032035023,0.028896034,-0.061728656,-0.7190548,0.58518016,-0.8488429
356054.715174091,0,0.080234736,0.019764185,-0.0665946,-0.84361637,0.66425014,-1.032263
356054.735174091,0,0.09646118,-0.008713752,-0.06687516,-0.93177545,0.78152883,-1.2497004
356054.755174091,0,0.043105394,-0.078202486,-0.11642468,-0.9688687,0.6871071,-1.2290436
356054.775174091,20000000,0.03037417,-0.13102537,-0.1577751,-0.9746079,0.5356853,-1.0804641
356054.795174091,0,0.054184914,-0.15105125,-0.18189669,-0.96043324,0.38920027,-0.89794695
356054.815174091,0,0.091463596,-0.13391346,-0.16605419,-0.928318,0.2756439,-0.78774226
356054.835174091,0,0.10552721,-0.13627702,-0.13047129,-0.84304655,0.18076593,-0.69717246
356054.855174091,0,0.09468654,-0.14509952,-0.103447974,-0.7172693,0.040407196,-0.5404019
356054.875174091,0,0.09735122,-0.13563886,-0.06784332,-0.59016603,-0.08040721,-0.40008968
356054.895145500,0,0.10056548,-0.12874374,-0.02930031,-0.46095023,-0.15922543,-0.28780502
356054.915145500,0,0.102190405,-0.11458647,-0.0001527667,-0.33748358,-0.19686325,-0.1916833
356054.935145500,20000000,0.103807986,-0.10039759,0.028951705,-0.21401694,-0.23450106,-0.09556159
356054.955145500,40000000,0.104550034,-0.07417169,0.049542606,-0.12854712,-0.25549525,-0.015964247
356054.975145500,0,0.11304262,-0.043605477,0.058686197,-0.09089942,-0.21629788,-0.033809967
356054.995145500,20000000,0.121524125,-0.013036132,0.06780839,-0.053251732,-0.17710051,-0.051655687
356055.015145500,40000000,0.10853568,-0.0048418045,0.04618883,-0.025534349,-0.1383157,-0.08720732
356055.035145500,0,0.11124867,-0.014512211,0.028506815,0.024972586,-0.1103386,-0.16257699
356055.055145500,20000000,0.11395541,-0.024173945,0.010814965,0.075479515,-0.08236149,-0.23794666
356055.075145500,0,0.09912938,-0.04705462,-0.02340573,0.13308379,-0.0879205,-0.3018529
356055.095145500,0,0.092404515,-0.067058265,-0.045378983,0.18040879,-0.09619038,-0.36311963
356055.115145500,0,0.08280668,-0.08906904,-0.06641507,0.20307337,-0.10477337,-0.38942474
356055.135145500,0,0.07939947,-0.0989092,-0.08318597,0.19032648,-0.13779159,-0.34150842
356055.175145500,0,0.07136312,-0.12473373,-0.11842722,0.16680832,-0.15885088,-0.25077292
356055.195145500,0,0.052796632,-0.14123434,-0.14014763,0.18891342,-0.24163717,-0.10109854
356055.215145500,20000000,0.08308017,-0.113526255,-0.12237275,0.20046817,-0.17628199,-0.06726622
356055.235145500,40000000,0.055033,-0.10680474,-0.13866025,0.21017037,-0.17545165,0.033224404
356055.255145500,0,0.03181413,-0.09376165,-0.1369462,0.23822078,-0.2376602,0.15477315
356055.275145500,0,0.015013635,-0.081484705,-0.11630982,0.27971008,-0.27202564,0.22905639
356055.295145500,0,-0.033059537,-0.07980381,-0.09279591,0.34249997,-0.42637748,0.39384148
356055.315145500,0,-0.060666174,-0.04888162,-0.028286695,0.39157176,-0.53273714,0.5056678
356055.335145500,0,-0.089535326,-0.006784439,0.027580023,0.39707926,-0.63093513,0.62076926
356055.355145500,0,-0.09230071,0.056140304,0.065766215,0.3050478,-0.57329416,0.5938733
356055.375145500,0,-0.089696676,0.10217455,0.087551355,0.123001575,-0.42930055,0.47358626
356055.395145500,20000000,-0.08715969,0.14814863,0.109295964,-0.05904466,-0.2853069,0.3532992
356055.415145500,40000000,-0.10978088,0.1496113,0.1081776,-0.2170862,-0.15306476,0.23541355
356055.435145501,0,-0.10734978,0.14148548,0.11319244,-0.32960185,-0.008074388,0.1123868
356055.455145501,0,-0.09170854,0.13012242,0.11397302,-0.39791176,0.13429928,-0.013050474
356055.475145501,0,-0.07263553,0.11201739,0.098207235,-0.4465601,0.24362138,-0.13403879
356055.495145501,20000000,-0.059250683,0.07579234,0.07890493,-0.45640963,0.28754747,-0.21732141
356055.515145501,0,-0.04394269,0.037125766,0.06735289,-0.43087256,0.26327845,-0.25389737
356055.535145501,0,-0.020550579,0.0014311373,0.0713982,-0.37371004,0.221782,-0.2896782
356055.555145501,0,-0.00609985,-0.03550443,0.08639318,-0.2802242,0.15827787,-0.30230275
356055.575145501,20000000,0.008364588,-0.072437584,0.10137689,-0.1867384,0.09477374,-0.31492728
356055.595145501,0,0.023121506,-0.096349925,0.12458575,-0.09916404,0.053189207,-0.3092274
356055.615145501,0,0.022342265,-0.11145264,0.13986486,-0.03707737,0.017558906,-0.26044053
356055.635145501,0,0.014259547,-0.12171669,0.1465196,0.012349915,-0.017818052,-0.16523258
356055.655145501,20000000,0.007694632,-0.11523633,0.14846009,0.036877956,-0.022268731,-0.0829675
356055.675145501,0,-0.0136552155,-0.10550693,0.13256514,0.049302828,0.0037424117,-0.0027304962
356055.695145501,0,-0.04595068,-0.092124894,0.100319445,0.058031965,-0.012519199,0.10627969
356055.715145501,20000000,-0.055739343,-0.06563413,0.08781737,0.071891725,0.011605043,0.15663396
356055.735145501,0,-0.073428065,-0.039446533,0.083168805,0.110994734,-0.007863052,0.21431418
356055.755145501,0,-0.07145172,0.0020377636,0.09744096,0.16755953,-0.011825496,0.22903235
356055.775145501,0,-0.048570275,0.058448553,0.112927556,0.21634382,-0.02561934,0.16486004
356055.795145501,0,-0.012233615,0.07552308,0.0759058,0.1939941,0.28265736,-0.25702652
356055.815145501,20000000,-0.12519348,-0.020982295,-0.03513962,0.22475779,-0.18911347,-0.06266306
356055.835145501,0,0.07378119,0.05250278,0.059691906,0.12483598,0.37271014,-0.7910049
356055.855145501,0,-0.13411212,-0.07269435,-0.16633171,-0.11439146,-0.097271025,-0.61195934
356055.875145501,20000000,-0.024106503,-0.007034898,-0.116188765,-0.4767114,-0.027536325,-0.8203796
356055.895145501,0,-0.047616422,-0.017105281,-0.2043097,-0.91954476,-0.10304462,-0.7360456
356055.935145501,0,-0.03575033,0.057167858,-0.3298732,-1.7442936,-0.13391382,-0.53719497
356055.955145501,20000000,-0.02412033,0.07964414,-0.33452195,-1.8267143,-0.23568627,-0.3488741
356055.975145501,0,0.025715083,0.1227546,-0.28374898,-1.6834956,-0.25697228,-0.34871003
356055.995145501,0,0.048734516,0.10372087,-0.22626674,-1.3379722,-0.28964517,-0.3763947
356056.015145501,0,0.06745598,0.05744204,-0.15732741,-0.8749737,-0.32695588,-0.4252562
356056.035145501,0,0.08564502,-0.006141722,-0.08735281,-0.3877732,-0.38298506,-0.4191933
356056.055145501,20000000,0.1303871,-0.05309239,-0.0040766597,0.04635957,-0.3885847,-0.39724952
356056.075145501,0,0.17367339,-0.079120696,0.065668106,0.3522789,-0.3357083,-0.3369379
356056.095145501,0,0.20007598,-0.08144319,0.1008687,0.49262005,-0.2401726,-0.22657952
356056.115145501,20000000,0.20614058,-0.07086438,0.11140221,0.51285106,-0.2298997,-0.030778632
356056.135145501,0,0.24910897,-0.04271078,0.15409255,0.49695414,-0.12619825,0.06816538
356056.155145501,0,0.25936896,-0.03056568,0.15919477,0.47252795,0.05060923,0.09315593
356056.175145501,20000000,0.20602968,-0.037128568,0.08350623,0.42218542,0.15615867,0.14809494
356056.195145501,0,0.14952105,-0.05956909,0.011618018,0.41228643,0.07698059,0.29711622
356056.215145501,0,0.18030769,-0.063489944,0.02581644,0.48302943,0.12100496,0.25068745
356056.235145501,20000000,0.17693433,-0.10790628,0.04149121,0.67430985,0.1526023,0.20543268
356056.255145501,0,0.12720248,-0.14504147,-0.02603203,0.81433505,0.18639225,0.15326929
356056.275145501,0,0.04011774,-0.17036588,-0.086872876,0.88744426,-0.072815776,0.4390816
356056.295145501,20000000,0.028749824,-0.12815568,-0.10704476,0.8163893,-0.14446461,0.6342624
356056.315145501,0,-0.012310863,-0.07956052,-0.14172012,0.64719486,-0.18870082,0.8081603
356056.335145501,0,-0.09690982,-0.05573517,-0.19173354,0.4557945,-0.35477886,1.0204045
356056.355145501,20000000,-0.114629865,0.010010719,-0.106800795,0.33514214,-0.47593954,1.1741318
356056.375145501,0,-0.15727282,0.10913423,-0.030836105,0.21327698,-0.37521526,1.2039174
356056.395145501,0,-0.25933105,0.2310366,-0.06824511,-0.015198037,-0.40227947,1.3259224
356056.415145501,0,-0.26682395,0.28663164,-0.06350559,-0.17854051,-0.25733256,1.0517776
356056.435145501,20000000,-0.2746629,0.34234506,-0.058820903,-0.34188297,-0.11238566,0.77763295
356056.455145501,40000000,-0.28068668,0.3068796,-0.03281319,-0.28511715,-0.051487412,0.50423294
356056.475145501,0,-0.22246602,0.26977438,0.012765586,-0.12546611,0.04630554,0.2191976
356056.495145502,20000000,-0.1642605,0.23267981,0.058334947,0.034184918,0.14409849,-0.06583774
356056.515145502,0,-0.12040982,0.16153002,0.088537514,0.12966463,0.1833444,-0.21635108
356056.535145502,20000000,-0.076592475,0.09038502,0.11872405,0.22514436,0.2225903,-0.36686438
356056.555145502,40000000,-0.032847017,0.02796948,0.1577738,0.2619068,0.24845608,-0.43595544
356056.575145502,0,-0.0047631264,-0.014135003,0.19558972,0.26407105,0.23371671,-0.37057996
356056.595145502,20000000,0.023238182,-0.056220055,0.23335958,0.2662353,0.21897733,-0.30520448
356056.615145502,40000000,0.055948496,-0.061946392,0.26012808,0.23152077,0.23032507,-0.23356071
356056.635145502,0,0.076397896,-0.05289021,0.27496672,0.17776634,0.2483617,-0.18521489
356056.655145502,0,0.08526081,-0.045062244,0.27725655,0.1299433,0.26032293,-0.1375742
356056.675145502,0,0.08297899,-0.042892605,0.27294505,0.10273837,0.29193813,-0.11670091
356056.695145502,0,0.0544478,-0.05213809,0.25127453,0.10915748,0.24145064,-0.02871982
356056.715145502,20000000,0.046808213,-0.054064155,0.23673981,0.14838216,0.24386135,0.0366828
356056.735145502,0,0.033779413,-0.04683751,0.22436488,0.22090426,0.12728971,0.12609582
356056.755145502,0,0.0840058,-0.04521793,0.28274637,0.39674628,0.18828626,0.07515676
356056.775145502,20000000,0.084718436,-0.059093,0.19929266,0.42471898,0.8474252,-0.4238891
356056.795145502,0,-0.24893689,-0.23534717,-0.0784924,0.5466765,-0.08784431,0.5742982
356056.815145502,0,0.006141633,-0.06702787,0.040587544,0.4660873,0.49456805,0.4324808
356056.835145502,20000000,-0.0719468,-0.037189364,-0.15872556,0.24456757,0.439713,0.9697685
356056.855145502,0,0.08749321,0.1008617,-0.18771207,0.028392479,0.82620096,1.1326545
356056.875145502,0,0.12205881,0.18285677,-0.31352657,-0.07877437,1.0969378,1.2848572
356056.895145502,20000000,0.10838395,0.2323947,-0.4650162,0.0018758476,1.1286659,1.36248
356056.915145502,0,0.09062374,0.2231873,-0.557552,0.3120659,0.9544587,1.414211
356056.935145502,0,0.093446285,0.2102716,-0.61287206,0.6799467,0.6632854,1.3896893
356056.955145502,0,0.113504544,0.19894871,-0.556144,1.0406204,0.3980321,1.158101
356056.975145502,20000000,0.088625,0.14499995,-0.4591723,1.3370513,0.047551006,0.9813253
356056.995145502,0,0.08672854,0.10633251,-0.31786227,1.4922647,-0.2803732,0.80329853
356057.015145502,0,0.12660047,0.067243606,-0.13969266,1.5120486,-0.45592862,0.62496454
356057.035145502,20000000,0.17526515,0.031211704,0.009821296,1.4172363,-0.46598104,0.46576422
356057.055145502,0,0.20724194,0.0027688146,0.10936326,1.2573986,-0.35578823,0.34216717
356057.095145502,0,0.23194389,-0.017106816,0.19784516,0.8511528,-0.21692508,0.33009723
356057.115145502,0,0.2475256,-0.008628726,0.20752263,0.643739,-0.08559516,0.35115874
356057.135145502,0,0.25638407,0.024143696,0.17388773,0.40419084,0.06330395,0.36575276
356057.155145502,0,0.2353681,0.054574355,0.11111486,0.15834823,0.20518623,0.34456313
356057.175145502,0,0.18251184,0.05657859,0.02240783,-0.032218054,0.19208549,0.40880632
356057.195145502,0,0.16768111,0.059081167,-0.046978235,-0.14085464,0.2233041,0.30061027
356057.215145502,0,0.10789338,-0.0020143539,-0.15928167,-0.13308519,0.20495829,0.17045319
356057.235145502,0,0.048010737,-0.054821223,-0.24078315,-0.040030405,-0.029330164,0.20577744
356057.255145502,20000000,0.06932837,-0.03842318,-0.22266978,0.045497544,-0.20689656,0.2358945
356057.275145502,0,0.11477432,0.002674058,-0.16098309,0.093184516,-0.24769077,0.19492246
356057.295145502,0,0.10939358,0.0054634362,-0.1377148,0.120171934,-0.33292586,0.21993604
356057.315145502,0,0.10121797,-0.0025168955,-0.11412907,0.14829743,-0.41363364,0.2634933
356057.335145502,0,0.09693301,-0.009123266,-0.08755875,0.17786787,-0.46489042,0.33008713
356057.355145502,0,0.084367454,-0.011954352,-0.07199341,0.20370601,-0.5296553,0.43089157
356057.375145502,20000000,0.08778104,0.0030721277,-0.05104965,0.22983907,-0.5681091,0.4949797
356057.395145502,0,0.08188367,0.0099440515,-0.035731852,0.27185205,-0.617042,0.49061757
356057.415145502,20000000,0.075972944,0.016700521,-0.020550549,0.313865,-0.6659749,0.48625547
356057.435145502,40000000,0.07004568,0.023341045,-0.0055046678,0.35587797,-0.7149078,0.48189333
356057.455145502,0,0.07324186,0.033831537,0.019888401,0.3492004,-0.7208649,0.40688968
356057.475145502,0,0.05377066,0.021397784,0.03750342,0.31745958,-0.73929924,0.3670348
356057.495145502,0,0.034264356,0.008856192,0.054926753,0.2857188,-0.7577335,0.32717994
356057.515145502,20000000,0.028947175,-0.009122565,0.079286575,0.25433496,-0.7357207,0.30160892
356057.535145502,0,0.026472509,-0.011836648,0.09490609,0.22076087,-0.63209796,0.28705382
356057.555145502,20000000,0.023952723,-0.01462999,0.110381365,0.18718678,-0.5284753,0.27249873
356057.575145502,40000000,0.012500435,-0.0073134303,0.1003176,0.12050434,-0.4251586,0.30655843
356057.595145503,0,0.023991227,0.016689613,0.103701115,0.057403617,-0.320148,0.32837024
356057.615145503,0,0.048998266,0.049797356,0.11478859,-0.012720853,-0.123560384,0.24795084
356057.635145503,20000000,0.005882323,0.044651166,0.075322986,-0.055294883,-0.0924629,0.3224523
356057.655145503,0,0.020225048,0.079879776,0.056712568,-0.12736623,0.0038781539,0.3229937
356057.675145503,20000000,0.0100317,0.1022445,0.014481187,-0.20538089,0.05307996,0.34221804
356057.695145503,0,0.0066227913,0.113618076,-0.01726079,-0.23946297,0.07408738,0.30703047
356057.715145503,20000000,-0.0055992305,0.11029528,-0.047626317,-0.21898463,0.04124638,0.28870177
356057.735145503,0,-0.008193433,0.10317339,-0.06228572,-0.15073456,-0.001377862,0.24648133
356057.755145503,0,-0.011672378,0.09109275,-0.05819398,-0.054352812,-0.06695573,0.21388127
356057.775145503,20000000,-0.015164107,0.07901132,-0.05410558,0.042028934,-0.13253361,0.18128121
356057.795145503,40000000,-0.016287029,0.06766367,-0.03723395,0.11581503,-0.18203826,0.14845246
356057.815145503,0,-0.016954064,0.05396107,-0.013585985,0.14189985,-0.21225135,0.14770028
356057.835145503,20000000,-0.017621815,0.040245578,0.010043085,0.1679847,-0.24246445,0.1469481
356057.855145503,0,-0.01821813,0.02899599,0.024980187,0.15178533,-0.24149418,0.18247256
356057.875145503,20000000,-0.018816918,0.017729968,0.03989649,0.13558596,-0.2405239,0.21799701
356057.895145503,0,-0.013420135,0.017224193,0.051804304,0.107495,-0.20660415,0.25189283
356057.915145503,20000000,-0.01052326,0.022039875,0.05319351,0.074266925,-0.15803733,0.27325404
356057.935145503,0,-0.011303544,0.028599858,0.04625839,0.041920718,-0.1104576,0.27963775
356057.955145503,0,-0.011831731,0.035135016,0.03579867,0.021184383,-0.07034244,0.25975496
356057.975145503,0,-0.01377666,0.03497988,0.024234712,0.016320655,-0.045022853,0.22705859
356057.995145503,0,-0.014921904,0.031745672,0.014502406,0.024821423,-0.034823574,0.18700492
356058.015145503,0,-0.013252735,0.027872756,0.011337876,0.031112578,-0.026355878,0.14263798
356058.035145503,20000000,-0.011585265,0.024000227,0.008173764,0.037403733,-0.017888183,0.09827104
356058.055145503,40000000,-0.010809213,0.019068733,0.003848374,0.033569403,-0.017747134,0.06977378
356058.075145503,0,-0.005464256,0.010982603,0.003246665,0.026295692,-0.006934733,0.038737185
356058.095145503,0,-0.0057864785,0.0027655065,0.0009715557,0.022066997,0.0032887068,0.029544264
356058.115145503,20000000,-0.0049733818,-0.0014919639,0.0013190508,0.015506927,0.011985656,0.032656725
356058.135145503,0,-0.0016087592,-0.0024458766,0.0009692311,0.010719828,0.027281877,0.039132413
356058.155145503,0,-2.0861626e-07,-0.0040503144,-0.0010575056,0.0073040877,0.036231987,0.052134246
356058.175145503,0,0.00038564205,-0.004891619,-0.0042259097,0.0015462725,0.04209701,0.05706056
356058.195145503,0,1.7344952e-05,-0.0047799945,-0.0050950646,-0.003573548,0.039041746,0.05078923
356058.215145503,20000000,-0.00035184622,-0.004667312,-0.005965054,-0.008693369,0.035986483,0.044517897
356058.235145503,40000000,0.000246346,-0.00274463,-0.00500983,-0.017325006,0.026035711,0.03533177
356058.255145503,0,0.0015577376,-0.004954964,-0.0012556314,-0.021913687,0.030335605,0.021108635
356058.275145503,20000000,0.0028688014,-0.007165104,0.0024980307,-0.026502367,0.0346355,0.006885498
356058.295145503,40000000,0.002269417,-0.0073022097,0.0023257136,-0.031999223,0.037828807,0.003438417
356058.315145503,0,0.004910916,-0.007220298,0.005748868,-0.037243072,0.051455364,-0.0045733154
356058.335145503,0,0.0055734813,-0.007221669,0.0062121153,-0.041008692,0.06506553,-0.009993781
356058.355145503,20000000,0.0062355995,-0.007223636,0.006673336,-0.044774313,0.078675695,-0.015414247
356058.375145503,0,0.007101327,-0.0045309514,0.0050497055,-0.059641186,0.08930668,-0.023161136
356058.395145503,0,0.006760806,-0.0037146807,0.001367867,-0.07735159,0.08873435,-0.027106917
356058.415145503,20000000,0.006420195,-0.0029000342,-0.0023185015,-0.095061995,0.08816203,-0.031052697
356058.435145503,40000000,0.00729993,-0.0030565262,-0.002398312,-0.10614347,0.0875773,-0.03297824
356058.455145503,0,0.0092431605,-0.0042908937,-0.0026148558,-0.10697386,0.09115287,-0.032135654
356058.475145503,20000000,0.011084825,-0.0023438185,-0.0025780797,-0.10180957,0.09279077,-0.027735313
356058.495145503,0,0.012604266,0.00094643235,-0.0046753883,-0.09764472,0.10063174,-0.027372133
356058.515145503,20000000,0.014123768,0.004235059,-0.0067791343,-0.09347987,0.10847272,-0.027008953
356058.535145503,40000000,0.016464233,0.007457018,-0.008417666,-0.088425,0.11283413,-0.034041464
356058.555145503,0,0.015490532,0.008310944,-0.011209071,-0.07884827,0.10204327,-0.038101062
356058.575145503,20000000,0.014516652,0.009162933,-0.014005482,-0.06927154,0.09125242,-0.04216066
356058.595145503,40000000,0.011487871,0.009067714,-0.016807675,-0.06152145,0.07247532,-0.042007603
356058.615145503,0,0.009648621,0.009259909,-0.017433822,-0.05414931,0.05143718,-0.036039338
356058.635145504,0,0.012521446,0.008342564,-0.016922712,-0.046163023,0.03853787,-0.035042673
356058.655145504,20000000,0.014101356,0.005032867,-0.016215384,-0.03090221,0.036558032,-0.039203115
356058.675145504,0,0.014759868,0.0065154135,-0.01460427,-0.017918324,0.03748828,-0.039060775
356058.695145504,20000000,0.0154180825,0.007997572,-0.012993574,-0.0049344376,0.03841853,-0.03891843
356058.715145504,40000000,0.01567489,0.0085757375,-0.012365162,0.0013941694,0.03830997,-0.039892647
356058.735145504,0,0.015245318,0.004095018,-0.012443185,0.00515177,0.028449051,-0.041585024
356058.755145504,20000000,0.014815152,-0.00038596988,-0.012521565,0.008909371,0.018588133,-0.0432774
356058.775145504,40000000,0.012671262,-0.0018525422,-0.012259841,0.011451433,0.0052185915,-0.041002486
356058.795145504,0,0.010942012,-0.001349926,-0.011635482,0.0064050676,-0.011872165,-0.037742402
356058.815145504,20000000,0.01146242,-0.0012307167,-0.0085020065,0.0017283787,-0.020151924,-0.033361115
356058.835145504,0,0.0124723315,-0.002753079,-0.005613327,-0.0031883363,-0.021538531,-0.039263934
356058.855145504,0,0.009249538,-0.0054377317,-0.0065428615,-0.0049467077,-0.029422801,-0.032231912
356058.875145504,20000000,0.006516278,-0.0075639635,-0.0071865916,-0.003653102,-0.033489566,-0.020425005
356058.895145504,40000000,0.0037826896,-0.009689912,-0.007830679,-0.0023594964,-0.03755633,-0.008618098
356058.915145504,0,0.0041574836,-0.008693442,-0.0065505505,-0.0018025984,-0.035514202,-0.0034512682
356058.935145504,20000000,0.0045319498,-0.007696837,-0.0052708387,-0.0012457003,-0.03347207,0.0017155609
356058.955145504,40000000,0.0019016266,-0.005431816,-0.005392611,-0.004579855,-0.032992966,0.014086325
356058.975145504,0,0.0016775131,-0.006293118,-0.00455004,-0.0076714875,-0.035368156,0.026167337
356058.995145504,0,0.0013875365,-0.006188661,-0.0047001243,-0.005689155,-0.034232937,0.036238637
356059.015145504,0,0.0014992952,-0.0065606087,-0.0043048263,-0.0012680488,-0.031639013,0.041813903
356059.035145504,20000000,-0.0007763207,-0.0060180724,-0.004308939,0.004450293,-0.036085013,0.049822956
356059.055145504,0,0.00019925833,-0.0038351715,-0.0030133724,0.004368687,-0.03287273,0.046144262
356059.075145504,20000000,0.0011744499,-0.0016526282,-0.0017179251,0.004287082,-0.029660445,0.042465568
356059.095145504,40000000,0.0021493137,0.0005296171,-0.00042259693,0.004205476,-0.02644816,0.038786877
356059.115145504,0,0.0008559227,-0.0007544458,-0.0010569692,-2.8967857e-05,-0.02777104,0.041156825
356059.135145504,0,0.0028221905,-0.0002655387,-0.0015594363,-0.0011225941,-0.027528433,0.041071557
356059.155145504,20000000,0.0047879815,0.0002232194,-0.0020620227,-0.0022162204,-0.027285824,0.04098629
356059.175145504,0,0.004302293,0.0009976625,0.0007830858,-0.0028793318,-0.025325503,0.04282331
356059.195145504,0,0.006605923,0.0022423863,4.3332577e-05,-0.0037756434,-0.01688714,0.03946137
356059.215145504,20000000,0.008908927,0.0034870207,-0.0006964803,-0.004671955,-0.008448777,0.036099426
356059.235145504,40000000,0.0068021715,0.0029346943,-0.0023854375,0.000754375,-0.0028887982,0.023364637
356059.255145504,0,0.0041366816,0.003109306,-0.0055371523,0.008316441,-0.0042712414,0.013814729
356059.275145504,0,0.005418271,0.0058986545,-0.0059778094,0.0071843555,-0.0058334284,0.005611372
356059.295145504,20000000,0.0072514415,0.006200075,-0.0072898865,0.0033607206,-0.005416258,0.0016595963
356059.315145504,0,0.010056764,0.0024102628,-0.0063507557,0.008150505,0.0008099829,-0.004689246
356059.335145504,0,0.009406149,-0.0012667179,-0.0067135096,0.011460887,0.0084544765,-0.010122864
356059.355145504,20000000,0.005010426,-0.007379234,-0.0064210296,0.023869103,0.0040866183,-0.0011443384
356059.375145504,0,0.0044192374,-0.0057789385,-0.0045993924,0.030497821,0.004892393,0.005883134
356059.395145504,0,0.008045644,-0.00300923,-0.0037715435,0.030677367,0.007710971,0.0029625306
356059.415145504,20000000,0.005798757,-0.0059616566,-0.0033599734,0.03495663,0.010974441,-0.003700174
356059.435145504,0,0.0026375651,-0.0070914626,-0.005389869,0.035239775,-0.0011647828,-0.0006733353
356059.455145504,0,0.0037136674,-0.00995557,-0.0040628314,0.033115745,-0.0009323786,-0.0058371546
356059.475145504,20000000,0.0043111145,-0.01062499,-0.0016978979,0.030613506,0.0049195555,-0.007217157
356059.495145504,0,0.005470097,-0.011546269,-0.0011880398,0.02558352,0.013627669,-0.0010545496
356059.515145504,0,0.0067144334,-0.008522555,-0.0017329454,0.018327205,0.020859752,0.004764082
356059.535145504,20000000,0.00795868,-0.0054986626,-0.0022780895,0.0110708885,0.028091835,0.010582713
356059.555145504,0,0.007442087,-0.0061023235,-0.0053772926,0.0062230895,0.027814405,0.017884886
356059.575145504,0,0.008466095,-0.0064148903,-0.008963108,0.009165622,0.029130686,0.018997062
356059.595145504,20000000,0.007253617,-0.007531494,-0.011160791,0.020163853,0.021812506,0.018072901
356059.615145504,0,0.006158501,-0.010849416,-0.013019085,0.03742581,0.010452143,0.019294415
356059.635145504,0,0.008654624,-0.007917523,-0.0135297775,0.046605155,0.0038740379,0.013618638
356059.655145504,0,0.010591984,-0.0039699525,-0.013479173,0.040200915,0.000629036,0.006126093
356059.675145504,0,0.0050513744,-0.007320702,-0.018860698,0.034999743,-0.013792493,-0.006288108
356059.695145504,0,-0.0052567124,-0.0110939145,-0.0218032,0.0262465,-0.051417578,-0.0061872136
356059.715145505,20000000,-0.006920904,-0.008868232,-0.017746568,0.017494615,-0.06765995,-0.023409167
356059.735145505,0,-0.008907497,-0.010665327,-0.011534095,0.013155265,-0.092689574,-0.025665354
356059.755145505,20000000,0.0007877052,-0.005948931,0.00075507164,0.006209367,-0.07447203,-0.064190954
356059.775145505,0,0.00019666553,-0.010493159,0.0017282367,0.0019051232,-0.08214322,-0.072249025
356059.795145505,0,0.014620155,-0.013583824,0.004298389,-0.002607387,-0.050920054,-0.10981275
356059.815145505,0,0.01853484,-0.026193067,0.0024123192,0.0059144325,-0.021599425,-0.12547918
356059.835145505,20000000,0.018159926,-0.027217373,-0.0018293262,-0.0023773643,-0.00033912994,-0.116374955
356059.855145505,0,0.020555258,-0.022411823,-0.008403182,-0.019206481,0.0068347645,-0.06785537
356059.875145505,0,0.02829644,-0.02029273,-0.009639621,-0.03172289,0.049311064,-0.053818636
356059.895145505,0,0.003552854,-0.03343278,-0.022539437,-0.015574042,0.034021657,0.011833556
356059.915145505,0,-0.008829534,-0.032059282,-0.021717787,0.013122486,-0.0075533427,0.08220795
356059.935145505,20000000,-0.021212578,-0.03068532,-0.020895958,0.04181901,-0.04912835,0.15258235
356059.955145505,0,-0.015176535,-0.016144186,-0.0020905733,0.07795298,-0.06263392,0.180816
356059.975145505,20000000,-0.008763909,-0.007122427,0.030542254,0.13435014,-0.041689187,0.17517525
356059.995145505,40000000,-0.03400722,-0.0070469826,0.040835917,0.17934774,-0.0686338,0.23464279
356060.015145505,0,-0.03940475,0.008236542,0.043916285,0.1279004,-0.025785,0.2763751
356060.035145505,20000000,-0.044803023,0.023528397,0.046997428,0.076453075,0.017063808,0.3181074
356060.055145505,40000000,-0.0502021,0.038828567,0.050079346,0.025005747,0.059912615,0.3598397
356060.075145505,0,-0.024185717,0.07137206,0.06930792,-0.063374996,0.19619718,0.3029204
356060.095145505,0,-0.024083793,0.089168906,0.06356722,-0.14393812,0.2813269,0.24760081
356060.115145505,0,-0.020115376,0.092009485,0.06037581,-0.17855203,0.3272327,0.15391389
356060.135145505,0,-0.029222965,0.06585196,0.05532968,-0.14324245,0.28490788,0.12809065
356060.155145505,0,-0.01632312,0.05128783,0.058844328,-0.0764278,0.25560635,0.095502436
356060.175145505,20000000,-0.021639764,0.034432203,0.03958702,-0.025725596,0.20933416,0.120267764
356060.195145505,0,-0.027281195,0.028431088,0.015836895,-0.012877612,0.17821923,0.16091156
356060.215145505,0,-0.03637597,0.027024925,-0.004825473,-0.020597814,0.14168096,0.225218
