timestamp,dtNs,ax,ay,az,gx,gy,gz
306183.469246250,0,-0.35055223,0.052862145,-0.28938526,0.014918845,-0.010391026,0.0151092075
306183.489246250,0,0.0013383627,-0.0054203197,0.0017112494,0.034212504,-0.017233828,-0.0027576277
306183.509246250,20000000,0.00030475855,-0.0026412532,0.00094628334,0.040502585,-0.0193214,-0.011039807
306183.529246250,0,4.8577785e-05,0.001351893,-4.1365623e-05,0.043741833,-0.02115358,-0.006136894
306183.549246250,20000000,-0.0009679496,0.00824333,-0.0033849478,0.038227066,-0.015199022,0.0096271
306183.569246250,0,-0.0025578141,0.008853942,-0.0030180216,0.03141692,0.003335517,0.026001606
306183.589246250,0,-0.0017893314,0.007290207,-0.004034281,0.030155545,0.012941339,0.032693744
306183.609246250,0,-0.00018841028,0.0015212893,-0.0020390153,0.04166235,0.011961767,0.08004215
306183.629246250,20000000,5.1945448e-05,0.0014428571,-0.0036099553,0.07143659,0.02757956,0.10519354
306183.649246250,40000000,0.00029322505,0.0013644621,-0.005181074,0.10121083,0.043197356,0.13034493
306183.669246250,60000000,0.0005353391,0.0012861043,-0.0067522526,0.13098508,0.058815148,0.1554963
306183.689246250,0,0.001834482,0.002506435,-0.0058754086,0.17791836,0.087588824,0.2310928
306183.709246250,20000000,0.0016748607,0.0029399619,-0.004084468,0.2053538,0.09828861,0.2582919
306183.729246250,0,0.0053097904,0.010352343,-0.006555319,0.22757727,0.12012937,0.3018342
306183.749246250,0,0.0040374994,0.005204454,-0.0013733506,0.21090284,0.11441751,0.29081643
306183.769246250,20000000,0.0027757585,5.7399273e-05,0.003803134,0.19422841,0.10870565,0.27979863
306183.789246250,0,-0.00024938583,-0.018468097,0.017077327,0.1405667,0.06876965,0.20747231
306183.809246250,20000000,-0.0016056895,-0.025529526,0.019626915,0.11686584,0.04468744,0.16462046
306183.829246250,0,-0.0017036796,-0.028814107,0.021095812,0.10129491,0.022034267,0.12817906
306183.849246250,0,-0.0009932816,-0.03282903,0.018423736,0.07370957,-0.014519313,0.061213963
306183.869246250,0,0.0018582344,-0.026449084,0.008052349,0.039636962,-0.023239532,0.00567103
306183.889246251,20000000,0.0053892136,-0.023468226,0.00091409683,0.02969082,-0.016225757,0.0002497146
306183.909246251,0,-0.00071921945,-0.01538682,0.00028586388,0.028612874,0.0037023283,0.019295186
306183.929246251,20000000,0.0014848113,-0.011898562,-0.0036030412,0.031978253,0.008358868,0.035286527
306183.949246251,0,0.0056969523,-0.01395604,-0.0060144663,0.046563353,0.021113932,0.058672965
306183.969246251,0,0.0029627979,-0.01271072,-0.0019620657,0.07513268,0.030025184,0.07274039
306183.989246251,0,0.00023150444,-0.011465758,0.0020867586,0.103702016,0.038936436,0.08680782
306184.009246251,20000000,-0.0024968684,-0.010221243,0.0061320662,0.13227135,0.047847692,0.10087524
306184.029246251,0,-0.0002092123,-0.017056912,0.011564195,0.20253198,0.031891216,0.12983213
306184.049246251,0,0.001868695,-0.015570775,0.009209871,0.22745156,0.024484044,0.13195725
306184.069246251,20000000,0.0039532185,-0.014086515,0.0068446994,0.25237113,0.017076872,0.13408236
306184.089246251,0,-0.0012723505,-0.0013907403,0.0016195178,0.27060044,0.007111016,0.13993509
306184.109246251,20000000,-0.0020999014,-9.277463e-05,0.00044465065,0.2743121,0.009930396,0.15801239
306184.129246251,0,0.0043536723,0.005874589,-0.004616916,0.26130164,0.032057364,0.17849512
306184.149246251,0,0.0008009076,0.0017927587,0.00070261955,0.22116992,0.031437926,0.18122894
306184.169246251,0,0.001962781,-0.0039830953,0.0011894703,0.20251,0.040458478,0.16564219
306184.189246251,0,0.00042766333,-0.008483022,0.0046138763,0.16261524,0.037957657,0.13381861
306184.209246251,0,-0.0010798275,-0.01009503,0.0063892007,0.13115543,0.026527617,0.10574596
306184.229246251,20000000,-0.0025845766,-0.011707544,0.008161843,0.09969563,0.01509758,0.0776733
306184.249246251,40000000,-0.0046423376,-0.014967889,0.010382175,0.026301436,-0.010129054,0.012119338
306184.269246251,0,-0.002961576,-0.016178042,0.010327995,-0.0024858676,-0.020112567,-0.012847029
306184.289246251,0,-0.0021952987,-0.016287237,0.007698357,-0.019040592,-0.023012623,-0.032538816
306184.309246251,20000000,-0.0014286041,-0.016396388,0.005068481,-0.03559532,-0.02591268,-0.052230604
306184.329246251,0,-0.0011617839,-0.015781567,0.002784729,-0.036869917,-0.023543227,-0.05542974
306184.349246251,20000000,-0.0008944273,-0.0151667,0.0005007386,-0.038144514,-0.021173775,-0.058628876
306184.369246251,0,0.00025063753,-0.00968498,-0.00208807,-0.025618691,-0.0018582795,-0.05157033
306184.389246251,20000000,0.00060385466,-0.008403674,-0.0016494393,-0.022200625,-0.0002078875,-0.044851094
306184.409246251,0,0.00041380525,-0.009533018,0.0033791065,-0.0050279466,0.00088088587,-0.03637728
306184.429246251,0,-0.0018440485,-0.009341806,0.005820453,0.0031364183,-0.007390012,-0.035519015
306184.449246251,20000000,-0.0041020215,-0.009150654,0.008261681,0.011300784,-0.01566091,-0.03466075
306184.469246251,0,-0.0105133355,-0.0038702488,0.012427688,0.013980665,-0.044681758,-0.012927629
306184.489246251,0,-0.006454408,-0.0069153756,0.0040323734,0.004701159,-0.048161335,-0.007978248
306184.509246251,0,-0.007909298,-0.008222699,0.004803717,0.0018805966,-0.04695089,-0.009758188
306184.529246251,20000000,-0.009364039,-0.009530023,0.005574882,-0.0009399655,-0.045740448,-0.011538127
306184.549246251,40000000,-0.01081869,-0.010837257,0.0063458085,-0.0037605278,-0.044530004,-0.013318067
306184.569246251,60000000,-0.012273252,-0.012144446,0.007116556,-0.00658109,-0.04331956,-0.015098007
306184.589246251,80000000,-0.013727695,-0.013451636,0.007886946,-0.009401652,-0.04210912,-0.016877947
306184.609246251,0,-0.007470578,-0.02014026,0.008146644,0.039525487,-0.11441789,-0.07976118
306184.629246251,0,-0.0012276471,-0.017509043,0.0041595697,0.043966733,-0.096704826,-0.08263531
306184.649246251,0,-0.0014561415,-0.0031551272,0.0008624196,0.049502842,-0.07886987,-0.098407835
306184.669246251,20000000,-0.0034792721,-0.0024822205,0.0023085475,0.053793557,-0.07937661,-0.09324836
306184.689246251,0,-0.00097066164,-0.002218604,-0.0021889806,0.0588908,-0.07504758,-0.08328908
306184.709246251,20000000,0.002417326,0.008093551,-0.009266198,0.055555243,-0.06266087,-0.07529922
306184.729246251,0,-0.00017866492,0.0009519607,-0.0036010742,0.054150347,-0.0437584,-0.062242895
306184.749246251,20000000,-0.0027750432,-0.006189391,0.002063632,0.052745454,-0.024855928,-0.04918657
306184.769246251,0,-0.004362166,-0.00763309,0.0032985806,0.05305345,-0.024187228,-0.044944778
306184.789246251,20000000,-0.0070943832,-0.0035370588,0.0046373606,0.041877158,-0.03682153,-0.047652856
306184.809246251,0,-0.005026251,-0.0035884082,0.0043765306,0.02354597,-0.036550123,-0.07505502
306184.829246251,20000000,-0.0029571056,-0.0036391616,0.004115522,0.0052147806,-0.036278717,-0.10245717
306184.849246251,40000000,-0.0008869469,-0.003689289,0.0038542747,-0.013116408,-0.03600731,-0.12985933
306184.869246251,0,-0.0028817952,-0.0032091737,0.005032778,-0.017916933,-0.04137967,-0.1404738
306184.889246251,20000000,-0.0048748553,-0.00272879,0.0062110424,-0.02271746,-0.046752036,-0.15108827
306184.909246251,0,0.0021184087,-0.0044045597,0.003420055,-0.011312607,-0.049077824,-0.15824799
306184.929246251,0,0.008186549,-0.006760195,0.0027958155,0.006411333,-0.05647203,-0.16718157
306184.949246251,20000000,0.011835128,-0.005755335,0.0020253658,0.012319231,-0.0628725,-0.17705372
306184.969246252,0,0.0153512955,-0.0077887475,0.0017204285,0.02524367,-0.06068763,-0.17704237
306184.989246252,20000000,0.018868804,-0.009821549,0.0014154911,0.03816811,-0.058502764,-0.17703103
306185.009246252,0,0.017903268,-0.0011771023,0.0056572556,0.07896666,-0.0598261,-0.14817709
306185.029246252,20000000,0.020683944,0.0046001524,0.009860218,0.13778399,-0.059370983,-0.07645559
306185.049246252,0,0.023065954,0.0132115185,0.008953214,0.1352469,-0.058317546,-0.038488835
306185.069246252,0,0.020023316,0.026446506,0.0016284585,0.11104043,-0.056474328,0.058794033
306185.089246252,20000000,0.012253374,0.008540139,0.012155473,0.112239644,-0.037476406,0.10625452
306185.109246252,0,0.0059531033,0.010065615,0.011045933,0.09112234,-0.0417579,0.1542117
306185.129246252,20000000,-0.00034198165,0.011588901,0.009933472,0.07000503,-0.046039395,0.20216888
306185.149246252,40000000,-0.008577079,0.0064745992,0.0056501627,0.035369825,-0.07144236,0.2723124
306185.169246252,0,-0.008367211,-0.0067448765,0.0039782524,0.040122908,-0.06323388,0.26238835
306185.189246252,20000000,-0.008147359,-0.019971982,0.0023038387,0.044875994,-0.055025406,0.2524643
306185.209246252,0,-0.018755287,-0.017599896,-0.0018202662,0.03858565,-0.033283215,0.23575394
306185.229246252,20000000,-0.024092585,-0.019644901,-0.001312077,0.03840235,-0.03132298,0.24604224
306185.249246252,40000000,-0.029427648,-0.021691263,-0.0008042455,0.038219046,-0.029362742,0.25633052
306185.269246252,0,-0.028246284,-0.025378317,-0.007405579,0.021628384,-0.022229303,0.24694686
306185.288391042,0,-0.0071514025,-0.041272126,-0.014426726,0.024011638,0.0165277,0.16094328
306185.308391042,20000000,0.0058047473,-0.028547943,-0.016519368,0.033987317,0.055497043,0.057955533
306185.328391042,0,0.00503394,-0.022491947,-0.010656536,0.04588145,0.075353354,0.015756588
306185.348391042,20000000,0.0042641163,-0.0164361,-0.004795015,0.057775583,0.09520966,-0.026442356
306185.368391042,0,0.0007170737,-0.013492554,0.0007318258,0.06819592,0.098901615,-0.03100364
306185.388391042,0,-0.0026519,-0.009586677,0.0051630735,0.079505324,0.081158265,-0.024408858
306185.408391042,0,0.0023744106,-0.009030491,0.00401634,0.06842266,0.08395065,-0.03846651
306185.428391042,20000000,0.0074010193,-0.008475497,0.0028678179,0.057339996,0.08674304,-0.05252416
306185.448391042,40000000,0.012427926,-0.007921666,0.0017175674,0.046257332,0.08953543,-0.066581815
306185.468391042,0,-0.0061448216,0.004629791,0.013435066,-0.005892219,0.07455759,-0.046404034
306185.488391042,0,-0.016708761,0.0098281205,0.010705173,-0.17105545,0.1571315,8.013099e-06
306185.508391042,20000000,-0.026130319,-0.0035934448,0.018059611,-0.27800208,0.22441818,0.023356108
306185.528391042,0,0.089089036,-0.01989545,-0.050673544,-0.050956547,0.08096076,-0.10339801
306185.548391042,20000000,-0.018296093,0.03436874,0.0035547018,-0.18076907,0.23346347,-0.1282038
306185.568391042,0,-0.039993107,0.039633423,0.018777013,-0.1397266,0.03702858,0.031182274
306185.588391042,0,0.0057887435,0.0058575124,-0.008456826,-0.16709131,0.005070571,0.11207319
306185.608391042,0,0.022484332,-0.0044904947,-0.015104771,-0.18540302,0.04947169,0.10790306
306185.628391042,20000000,0.039176047,-0.014839932,-0.021759033,-0.20371473,0.09387281,0.103732936
306185.648391042,0,0.02150771,-0.01622267,-0.0034213662,-0.18504882,0.12091875,0.04174987
306185.668391042,0,-0.01380083,-0.059818923,0.07546741,0.14423402,-0.1798785,-0.23177958
306185.688391042,0,-0.012726307,-0.057711735,0.020189881,0.027267866,-0.06085194,-0.15213273
306185.708391042,20000000,-0.011651903,-0.05560465,-0.03508842,-0.08969829,0.058174618,-0.072485894
306185.728391042,40000000,-0.01057741,-0.053497866,-0.09036744,-0.20666444,0.17720118,0.0071609393
306185.748391042,60000000,-0.009502798,-0.051391244,-0.14564717,-0.3236306,0.29622775,0.08680779
306185.768391042,0,-0.0053013265,0.023419574,0.0065856576,0.029979073,0.04700394,-0.03362058
306185.788391042,0,0.035598516,0.036445156,0.0026887655,-0.05226043,0.03680198,0.0061299163
306185.808391042,20000000,0.04536107,0.02282627,0.029871583,-0.05695779,0.021822136,0.025206992
306185.828391042,0,-0.028026372,-0.028247878,0.030878186,-0.06265173,-0.054249622,-0.024180487
306185.848391042,20000000,-0.023661047,-0.002997741,0.011975944,-0.05104585,-0.03905479,-0.030482052
306185.868391042,40000000,-0.019294262,0.02225256,-0.006927669,-0.039439965,-0.023859952,-0.036783617
306185.888391042,0,-0.012723088,0.010513425,-0.0043646693,-0.0336841,-0.04467725,-0.05363843
306185.908391042,0,0.002055198,0.0045221,0.006134093,-0.0036750273,-0.07862109,-0.06551601
306185.928391042,20000000,0.0028409362,0.0010391772,0.0024434328,-0.006692524,-0.07026587,-0.04691356
306185.948391042,0,0.00085294247,-0.003184393,0.0028110743,-0.0053830915,-0.040808693,-0.04441482
306185.968391042,0,-0.008526117,0.0036948174,-0.00107342,0.039249264,-0.08642626,-0.0077652754
306185.988391042,20000000,0.0024541914,0.011306137,-0.012749791,0.0062079243,-0.02472768,-0.014835682
306186.008391042,0,-0.0037265122,0.0044085383,-0.00541085,-0.02272686,-0.024387825,0.0024372463
306186.028391042,20000000,-0.003873378,0.003370747,-0.0047554374,-0.02506286,-0.013634325,0.015316288
306186.048391042,40000000,-0.0040202737,0.0023329258,-0.004100144,-0.027398862,-0.0028808247,0.028195329
306186.068391042,0,-0.0102185905,-0.017384186,0.0013181567,-0.0035306439,-0.026246775,-0.008417796
306186.088391042,0,-0.022345752,-0.028768927,0.024706125,0.14854214,-0.24465422,-0.14403787
306186.108391042,0,0.017602414,0.0072342306,-0.003947556,0.2473192,-0.23968208,-0.16146883
306186.128391042,20000000,0.014620423,0.012094602,-0.012049377,0.18977657,-0.15187329,-0.056765333
306186.148391042,40000000,0.011641771,0.016954437,-0.020166993,0.13223392,-0.06406448,0.047938175
306186.168391043,0,0.0004130304,-0.016913295,0.011639953,0.08100333,-0.118468344,0.065408066
306186.188391043,20000000,0.00028544664,-0.023473576,0.009334087,0.07998551,-0.04502365,0.025741942
306186.208391043,0,-0.008483022,0.005725533,0.007795453,0.060171418,-0.07996428,0.057592224
306186.228391043,0,-0.010964185,0.010266632,0.006527424,0.057176817,-0.07951631,0.079200305
306186.248391043,20000000,-0.013444126,0.014807031,0.0052574277,0.054182217,-0.07906834,0.10080838
306186.268391043,0,0.008854628,0.0030253232,-0.012248158,-0.012249671,-0.04358181,0.046619095
306186.288391043,20000000,0.010114372,-0.0046572387,-0.010276258,-0.032784067,-0.024099512,0.009940773
306186.308391043,0,0.005662143,-0.0006235391,-0.0007161498,-0.05508721,0.01445994,-0.02388563
306186.328391043,20000000,-0.00093615055,-0.0024198592,0.0070679784,-0.052084465,0.0083740745,-0.016851297
306186.348391043,0,-0.007016629,-0.0022305846,0.009838641,-0.058124676,0.010614067,-0.01785746
306186.368391043,0,0.00044628978,-0.0026515871,-0.0001911521,-0.05072847,-0.023352228,-0.05294329
306186.388391043,20000000,-0.002054751,-0.0022744536,-0.00015425682,-0.043364774,-0.01892989,-0.06828996
306186.408391043,40000000,-0.004554838,-0.0018977076,-0.000118136406,-0.036001083,-0.014507552,-0.08363663
306186.428391043,0,0.007163346,0.010827988,-0.020618498,-0.095580876,0.11473247,-0.06779291
306186.448391043,20000000,-0.013706446,0.01974696,-0.012930691,-0.12459615,0.15188599,-0.02308083
306186.468391043,0,-0.015306711,0.051454276,-0.0129032135,-0.20528562,0.1330914,0.11383456
306186.488391043,0,-0.018806905,0.07991059,-0.016169727,-0.24525514,0.18271105,0.15912439
306186.508391043,0,-0.008444399,0.061446086,-0.031630576,-0.11061339,0.1428948,0.11005792
306186.528391043,20000000,-0.020273447,0.047445804,-0.019038856,-0.093668476,0.14194374,0.11203286
306186.548391043,0,-0.016668499,0.03003399,-0.023056686,-0.085563056,0.08335269,0.10918238
306186.568391043,20000000,-0.009362429,0.00828585,-0.009196818,-0.07700295,0.09473751,0.08419652
306186.588391043,0,-0.0062913,0.034189954,-0.0023172498,-0.09803119,0.11843537,0.17666584
306186.608391043,0,0.015572429,0.036293,-0.009817243,-0.0956381,0.20384938,0.26762787
306186.628391043,0,-0.00412482,-0.002516508,0.017464817,-0.018487707,0.172328,0.26128668
306186.648391043,0,-0.0024536252,-0.0060792267,0.014267921,-0.004257337,0.10470414,0.19715995
306186.688391043,0,0.0058332384,-0.009608522,0.0054365396,0.022693349,0.017832754,0.069644056
306186.708391043,0,-0.010522038,-0.011950269,-0.0130857825,-0.028104922,0.037818916,-0.11115702
306186.728391043,20000000,0.017637819,0.01508455,-0.03249067,-0.014255093,0.005338736,-0.048484564
306186.748391043,0,0.007988393,0.010675162,-0.0075718164,0.008412646,-0.02361543,-0.022611521
306186.768391043,0,0.008154392,0.0043821633,-0.0037838817,0.0027682022,-0.008454118,-0.02116145
306186.788391043,0,0.0057091117,0.0073444247,-0.0035657883,-0.0055081625,-0.0014570863,-0.01356175
306186.808391043,0,0.0042488277,0.004256934,-0.0029146671,-0.014723374,0.005947608,-0.010497309
306186.828391043,0,-0.0011337698,0.0065514,-0.002350092,-0.03413666,0.011845316,-0.010856879
306186.848391043,0,-0.008582413,-0.009002417,0.0059065223,-0.022475023,-0.06195728,-0.013677526
306186.868391043,20000000,0.016753852,0.010607243,-0.015475929,-0.013894121,0.050707873,0.030472983
306186.888391043,0,0.008491486,0.01462549,-0.008734405,0.05614369,-0.08006248,-0.05732583
306186.908391043,20000000,0.00023043156,0.018646866,-0.0019954443,0.12618151,-0.21083283,-0.14512466
306186.928391043,0,0.0047552586,0.032040328,0.0015155673,0.073296756,-0.17553705,-0.052588746
306186.948391043,0,0.001909554,0.007640481,0.007622659,0.04426127,-0.13960354,-0.03769712
306186.968391043,0,-0.00093486905,-0.016757697,0.0137254,0.015225781,-0.10367004,-0.022805495
306186.988391043,20000000,-0.00981155,-0.02777186,0.020068765,0.062305324,-0.111022584,-0.025368104
306187.008391043,0,-0.0039397776,-0.008769587,0.0055910945,0.078373045,-0.120677404,-0.0340665
306187.028391043,20000000,0.0018981695,0.002213806,-0.0033081174,0.06060989,-0.09400823,-0.031253893
306187.048391043,0,0.009087294,0.009877309,-0.014296174,0.044938512,-0.06899682,-0.047996104
306187.068391043,0,0.008736014,0.010996863,-0.014519572,0.037014283,-0.04524636,-0.048127588
306187.088391043,20000000,0.001811564,0.01369971,-0.007319212,0.031186385,-0.06119792,-0.045626175
306187.108391043,0,0.0020030737,0.011800215,-0.003251493,0.010708086,-0.047241185,-0.04193198
306187.128391043,20000000,0.0021947622,0.009901226,0.0008158684,-0.009770209,-0.033284448,-0.038237784
306187.148391043,40000000,-0.0047038794,0.016840622,-0.0016141534,-0.055356875,-0.0295536,-0.037324354
306187.168391043,0,-0.011729836,0.004252821,0.0016415715,-0.09046927,0.010814615,-0.03090119
306187.188391043,20000000,-0.018752158,-0.008336693,0.004891932,-0.12558167,0.05118283,-0.024478026
306187.208391043,40000000,-0.025770724,-0.020927966,0.008136988,-0.16069406,0.09155105,-0.01805486
306187.228391043,60000000,0.08012262,0.03193678,-0.055575907,-0.1191324,0.37644738,-0.14661838
306187.248391044,0,0.023156524,0.0021403432,-0.0009366274,-0.052398644,0.1819158,-0.07803272
306187.268391044,0,0.017362654,0.012392178,0.0023682714,-0.08729464,0.18894485,0.043708794
306187.288391044,20000000,0.011571139,0.022648111,0.0056555867,-0.12219064,0.1959739,0.1654503
306187.308391044,0,0.0216119,0.017254144,-0.008230746,-0.13093066,0.27338636,0.23914471
306187.328391044,20000000,0.0029456317,0.004491672,0.0022429228,-0.09010007,0.29047838,0.33968255
306187.348391044,0,-0.024422795,0.0048893243,0.022450984,0.010940023,0.08576071,0.22994569
306187.368391044,0,-0.010765344,7.767975e-05,0.013531506,0.008440722,0.013368823,0.16399288
306187.388391044,20000000,0.0010673404,-0.006324783,0.003937006,0.015362002,-0.020468064,0.118589565
306187.408391044,0,0.0017828047,-0.0083770305,0.0009649992,0.03475534,-0.021702107,0.08002394
306187.428391044,20000000,-1.7762184e-05,-0.00696446,-2.2828579e-05,0.032000802,-0.026626188,0.048843957
306187.448391044,0,0.0026741326,-0.0075826496,-0.0016530156,0.02645603,-0.023865614,0.025178626
306187.468391044,20000000,0.0019927323,-0.017539352,0.065638244,0.1107198,-0.16705437,-0.052871063
306187.488391044,0,0.004063934,-0.010233745,0.035039246,0.07204546,-0.09279704,-0.019063354
306187.508391044,20000000,0.0061351657,-0.0029280484,0.004439652,0.03337112,-0.01853972,0.014744353
306187.528391044,40000000,-0.001083225,0.00057664514,0.0013494492,0.018365294,0.0004188884,0.0217741
306187.548391044,0,-0.0028704107,-0.003463328,-0.00026100874,-0.0132912025,0.024430407,0.023802664
306187.568391044,20000000,-0.009096354,-0.018410295,0.0014526844,-0.012585649,-0.027703745,-0.0037101135
306187.588391044,0,0.05248773,-0.005382329,-0.026478112,0.010457555,0.21669607,0.11007805
306187.608391044,20000000,-0.010195732,-0.0295199,0.026441991,0.15210119,0.092050776,0.030481435
306187.628391044,0,-0.03653112,0.007948384,0.026939094,0.0637554,-0.13582353,-0.040767767
306187.648391044,20000000,-0.0052751303,-0.014389381,0.012078822,0.030719742,-0.22359434,-0.122410834
306187.668391044,0,0.0035449862,-0.013118073,0.0126776695,0.08407676,-0.23242804,-0.14470628
306187.688391044,0,-0.0012416542,-0.021210924,0.017638147,0.1310436,-0.19562769,-0.11839819
306187.708391044,20000000,0.013103515,0.0020967424,-0.005423248,0.11652446,-0.1171811,-0.06827777
306187.728391044,0,0.008454144,-0.0020812303,0.00038057566,0.098375306,-0.100785,-0.053913113
306187.748391044,20000000,0.014830619,0.008499637,-0.011138916,0.04542714,-0.023073353,-0.052769646
306187.768391044,0,0.007671237,0.022894204,-0.011128068,-0.024595167,0.007167317,-0.03174199
306187.788391044,20000000,-0.0030698776,0.015240908,-6.0141087e-05,-0.11275311,0.046973966,0.00085502863
306187.808391044,0,0.011762857,-0.004548654,0.00026655197,-0.16162066,0.10269278,0.0116411
306187.828391044,20000000,0.034532487,-0.001905039,-0.008601904,-0.17878313,0.20868894,0.06446695
306187.848391044,0,0.029691845,0.042225942,-0.046672285,-0.33030877,0.4769546,0.18395928
306187.868391044,0,0.030655473,0.022543237,-0.030966043,-0.24220505,0.31435722,0.13388811
306187.888391044,20000000,0.031617492,0.0028728247,-0.015283346,-0.15410136,0.1517598,0.08381695
306187.908391044,40000000,-0.0017337799,0.00207749,-0.00775367,-0.16337855,0.15052682,-0.010821931
306187.928391044,0,-0.014812946,-0.03450568,0.028411806,-0.092002206,-0.041233003,0.016630962
306187.948391044,0,-0.016177714,-0.05482857,0.032244623,0.052431695,-0.11933195,-0.044493705
306187.968391044,20000000,-0.0023759305,-0.02722928,-0.010473549,0.076610655,-0.09326101,-0.13166964
306187.988391044,0,9.179115e-06,-0.0037644207,-0.0011858344,0.15572003,-0.12803663,-0.16403118
306188.008391044,20000000,-0.012610912,0.015479058,0.004181683,0.06625124,-0.08859344,-0.11024951
306188.028391044,0,0.006000161,0.015363216,-0.0062143803,0.019280013,-0.06280827,-0.085124314
306188.048391044,0,0.0067209303,0.01579322,-0.0038277507,0.006175899,0.0065573975,-0.08141385
306188.068391044,20000000,0.0013428628,0.017129123,0.001940012,0.005271947,0.00816612,-0.045978814
306188.088391044,0,-0.00034749508,0.02232802,0.0015907288,-0.019214673,0.011828737,-0.008903809
306188.108391044,0,0.0005002618,0.019360453,0.001901269,-0.033387035,0.009728439,0.018534688
306188.128391044,20000000,0.0018554628,0.008234784,0.004395783,-0.03032286,-0.008119866,0.026497431
306188.148391044,0,0.004956007,0.00047153234,0.0020948648,-0.017478608,-0.008179355,0.022705738
306188.168391044,20000000,0.0011093616,0.0018017441,0.0020555258,-0.0025164085,-0.011226169,0.02298935
306188.188391044,0,-0.007082641,0.0027100742,0.001443088,0.0013278718,-0.043975085,0.034246348
306188.208391044,20000000,-0.0031223595,-0.001977712,-0.002925396,-0.011054549,-0.06336245,0.012300916
306188.228391044,0,0.0067439377,-0.011367187,-0.0071133375,-0.017666219,-0.056092855,-0.026891861
306188.248391044,20000000,-0.0037015378,-0.013802439,0.0024785995,0.022302223,-0.05983537,-0.10420829
306188.268391044,0,-0.0018874705,-0.00016200542,0.0012479424,0.03024289,-0.06113155,-0.09800291
306188.288391044,0,-0.017862141,-0.018224195,0.009320617,0.05122291,-0.24779083,-0.12130684
306188.308391044,0,-0.020843655,0.013499126,0.028771698,0.17085226,-0.34953803,-0.09274295
306188.328391045,0,-0.029938757,-0.027235389,0.054316282,0.10795569,-0.20536633,0.09114708
306188.348391045,20000000,0.01275298,-0.0051063895,-0.010717213,0.15607238,-0.11352549,0.020555854
306188.368391045,0,0.0060535967,0.017476097,-0.010060489,0.09264225,-0.068599425,0.0016608275
306188.388391045,0,0.0018612444,0.013748482,-0.009732187,0.07000594,-0.063959636,0.02666338
306188.408391045,20000000,-0.0023302436,0.010020435,-0.009405434,0.04736963,-0.059319843,0.05166593
306188.428391045,40000000,-0.0065208077,0.0062919855,-0.009080291,0.024733322,-0.05468005,0.07666848
306188.448391045,0,0.010508478,-0.009232923,-0.0107957125,0.041018486,-0.044159826,0.03710156
306188.468391045,20000000,-0.00061041117,0.0038771182,-0.0011729002,0.039538138,-0.009849008,-0.00970697
306188.488391045,0,0.0016032457,0.005156517,-6.5624714e-05,0.04417073,-0.033615083,-0.034554496
306188.508391045,0,-0.006718695,0.017013088,-0.0025452375,0.005305603,-0.006886421,-0.028956713
306188.528391045,0,-0.008314192,-0.006268859,0.009676278,0.006484907,-0.093960196,-0.046402857
306188.548391045,20000000,0.0017597079,0.0046624243,-0.0022383928,-0.057426754,-0.0024899319,-0.08466968
306188.568391045,0,-0.0027224123,-0.027803272,0.0029261112,-0.088514686,0.12476463,-0.11432443
306188.588391045,20000000,0.014097661,-0.013911158,-0.013468325,-0.12296973,0.1244644,-0.11884096
306188.608391045,0,0.048611343,0.04525727,-0.04459417,-0.2452429,0.28520113,-0.09058473
306188.628391045,20000000,0.030009627,0.034581706,-0.034297466,-0.15390024,0.39374432,0.006331399
306188.648391045,0,-0.0151127875,0.028294548,0.03402829,-0.1116544,0.2726825,0.3329295
306188.668226833,0,-0.020622244,-0.03169837,-0.0022838297,-0.08981866,0.25961593,0.28941572
306188.688226833,0,-0.012283683,-0.0253063,-0.0016751289,-0.06606029,0.19451943,0.22295472
306188.708226833,20000000,-0.00394392,-0.01891382,-0.0010663867,-0.04230193,0.12942293,0.15649372
306188.728226833,40000000,0.004397124,-0.012520999,-0.00045746565,-0.018543566,0.06432642,0.09003274
306188.748226833,60000000,0.0036685169,-0.0058909953,0.00071179867,0.0018970706,0.032270536,0.049988247
306188.768226833,0,0.001619339,-0.00020465255,0.0034165978,0.009369476,0.009161292,0.030998217
306188.788226833,20000000,0.0013337731,0.0015881509,0.0048993826,0.012299016,-0.001900591,0.020142501
306188.808226833,0,0.0062765777,0.0037849844,0.000546515,0.0052265343,0.000824129,0.010974517
306188.828226833,20000000,0.004526973,0.0058496743,0.0024737716,0.0017330523,0.009726901,0.009048594
306188.848226834,0,0.0032187402,0.0028211325,0.0046283603,0.0052630194,0.0046753422,0.01668591
306188.868226834,20000000,0.0015589297,0.0055278987,0.0038309097,-0.005651988,-0.004991382,0.022445079
306188.888226834,0,0.0038333237,0.0058034956,-0.0004466176,-0.019294221,-0.0075537274,0.014229241
306188.908226834,0,-0.009196758,0.0006261617,0.0052318573,-0.040273257,-0.02624248,-0.0036054486
306188.928226834,20000000,-0.0040489435,-0.027249336,0.008698344,0.020082317,-0.08479585,-0.03443493
306188.948226834,0,-0.0068660676,-0.013540179,0.0045639277,0.117643155,-0.16974941,-0.09191496
306188.968226834,20000000,-0.009682745,0.00017227232,0.0004258752,0.215204,-0.254703,-0.14939499
306188.988226834,0,-0.0030072033,-0.011692628,0.005377412,0.18069842,-0.18874225,-0.119565174
306189.008226834,20000000,0.0036682785,-0.023554236,0.0103212595,0.14619285,-0.1227815,-0.08973535
306189.028226834,40000000,0.010343671,-0.035412535,0.015257418,0.11168726,-0.05682075,-0.05990553
306189.048226834,60000000,-0.0051244497,-0.019577324,0.014377058,0.06934576,-0.06933516,-0.041278914
306189.068226834,0,0.0002965033,-0.0017264634,-0.004955411,0.07233621,-0.050603237,-0.015234379
306189.088226834,20000000,0.000164181,0.024481937,-0.016961157,0.02165775,-0.0039190315,0.012882825
306189.108226834,0,0.008418292,0.03273867,-0.024022043,-0.0738748,0.087249875,0.06122012
306189.128226834,20000000,0.007617116,-0.0021313578,-0.0014693141,-0.096498035,0.13198593,0.046199746
306189.148226834,0,0.07451734,0.068445675,-0.05682504,-0.25823137,0.45738748,0.3117904
306189.168226834,0,-0.012964517,0.006815046,0.03983909,-0.15776888,0.3470555,0.18950322
306189.188226834,0,-0.01772371,-0.0024306625,0.005178392,-0.18076949,0.28881815,0.15328005
306189.208226834,0,-0.035729736,-0.0045048594,0.02148348,-0.17202622,0.088021874,0.13398272
306189.228226834,0,-0.016008586,-0.0817077,0.044586062,-0.0018502176,-0.049996614,0.09474477
306189.248226834,0,0.01268515,-0.04317577,0.0073203444,0.117234625,-0.06984327,-0.040416375
306189.268226834,20000000,-0.0057275295,-0.011752263,0.011121571,0.12935777,-0.09296354,-0.066124335
306189.288226834,0,-0.0029033124,-0.0009950399,0.0019575357,0.110633396,-0.074294075,-0.05669339
306189.308226834,20000000,-7.992983e-05,0.009764433,-0.007214427,0.09190902,-0.05562462,-0.04726245
306189.328226834,40000000,-0.0029817522,0.0135462135,-0.0063803196,0.06171412,-0.037781026,-0.02845181
306189.348226834,0,-0.0013195276,0.012042224,-0.007482946,0.038339227,-0.019910535,-0.016174126
306189.368226834,0,-0.0025433302,0.009221807,-0.005048096,0.023768064,-0.010260006,0.0052687507
306189.388226834,20000000,-0.0037670434,0.0064013153,-0.0026131868,0.009196897,-0.000609478,0.026711628
306189.408226834,0,-0.00032621622,0.00033679605,-0.0024485588,0.002847041,0.008202353,0.023171673
306189.428226834,20000000,0.003114611,-0.0057277232,-0.0022838712,-0.0035028146,0.017014183,0.019631715
306189.448226834,0,-0.00015673041,-0.0070685744,0.0016289949,-0.0027096032,0.015101018,0.00975266
306189.468226834,0,-0.0041496158,-0.005398512,0.004789591,-0.001376385,0.0069851084,-0.0071964925
306189.488226834,0,-0.0024867058,-0.004049316,0.003123045,-0.002221068,-0.011661057,-0.028664649
306189.508226834,20000000,-0.0008777082,-0.0029446632,0.0017287135,-0.011999587,-0.02739517,-0.057800066
306189.528226834,0,-0.0020636022,-0.005028203,0.0031699538,-0.0023968024,-0.040718906,-0.07967164
306189.548226834,20000000,-0.0026114285,-0.0013274103,0.0017704964,0.015261198,-0.061308477,-0.0870076
306189.568226834,0,-0.0031434894,0.0029122382,0.0010403991,0.019161273,-0.06919251,-0.08769732
306189.588226834,0,-0.014999837,-0.008470029,0.026632845,0.05049714,-0.13286813,-0.033769727
306189.608226834,20000000,-0.026856631,-0.01984398,0.052214622,0.08183302,-0.19654375,0.020157874
306189.628226834,40000000,0.024790347,-0.012948468,-0.0027979016,0.13252234,-0.14904805,0.0058221007
306189.648226834,0,0.008520365,0.0083415955,0.00089007616,0.07460995,-0.07805865,-0.03344724
306189.668226834,0,0.004135132,0.0023139864,0.0013384223,0.050245456,-0.075888164,-0.017709302
306189.688226834,20000000,-0.0002501011,-0.0037124008,0.0017850399,0.025880963,-0.073717676,-0.001971364
306189.708226834,0,-0.004325658,-0.005064681,0.0024232268,0.0550625,-0.06685832,-0.010541922
306189.728226834,20000000,0.006727934,0.010071993,-0.012494624,0.028970858,-0.045608066,-0.015641127
306189.748226834,0,0.0059137642,0.010858402,-0.0069172382,0.020074481,-0.03627258,-0.032041997
306189.768226834,20000000,0.008502394,0.013038889,-0.010099292,0.010040578,0.0083470605,-0.036356904
306189.788226834,0,0.0020785034,0.013356119,-0.0012701154,0.018797427,0.00058240676,0.005660575
306189.808226834,0,-0.006088078,0.010637075,0.0028469563,0.0009181369,-0.023956727,-0.013439139
306189.828226834,20000000,0.0015345514,-0.00053702295,0.004498422,-0.041713737,-0.046230085,-0.044395205
306189.848226834,0,0.0009638369,-0.03099227,-0.00017493963,-0.06030052,0.08602018,-0.14102344
306189.868226834,20000000,0.007796794,-0.017037034,-0.012203455,-0.060059287,0.09364858,-0.15066142
306189.888226834,0,0.0046980977,0.0034182668,-0.023209393,-0.027556099,0.15554306,-0.08093728
306189.908226834,20000000,0.001608491,0.023868397,-0.034230113,0.0049470887,0.21743752,-0.011213146
306189.928226834,40000000,-0.00967893,0.027835965,0.013403654,-0.09411558,0.18995117,0.22642493
306189.948226835,0,0.020618767,0.00379844,0.0032473207,-0.13178664,0.2994038,0.35092247
306189.968226835,0,0.011204362,-0.0019339919,0.006858051,-0.07366988,0.16260025,0.23635371
306189.988226835,20000000,0.0017942786,-0.0076625794,0.010467291,-0.015553117,0.025796726,0.12178495
306190.008226835,40000000,0.004153013,-0.0040147305,0.004269302,0.015638439,-0.02661866,0.081508346
306190.028226835,0,0.0037730932,0.0025820434,-0.001982987,0.02042756,-0.033723176,0.07905343
306190.048226835,0,0.009365708,0.005742222,-0.008972943,0.0143022705,-0.010612648,0.06797624
306190.068226835,20000000,0.0030544102,0.005159542,-0.0021986365,0.0013398556,0.0061192866,0.062516235
306190.088226835,0,0.0033235848,-0.00040353835,-0.0011546612,-0.008368177,0.018179774,0.048628673
306190.108226835,0,0.0021392703,-0.0057674497,-0.00086236,-0.008911995,0.026140813,0.03167139
306190.148226835,0,-0.00022178888,-0.0046755224,0.0055084825,-0.0029277615,0.029373717,-0.0009947289
306190.168226835,0,0.0023345053,-0.0009749979,0.005926907,-0.0043113045,0.014346971,-0.020662272
306190.188226835,0,-0.0008568466,0.0011043698,0.0038742423,-0.0321498,0.010102283,-0.048126105
306190.208226835,20000000,-0.004047036,0.0031832457,0.0018209815,-0.059988298,0.005857595,-0.07558994
306190.228226835,40000000,-0.025802523,-0.025288582,0.02151692,-0.032356575,-0.1430183,-0.12754503
306190.248226835,0,0.05615148,0.016280442,-0.036274254,-0.018685497,0.11961833,-0.015546128
306190.268226835,20000000,-0.021805823,-0.011886328,0.019459307,0.1686733,-0.102547854,-0.19226404
306190.288226835,0,-0.010155708,-0.009047627,0.020272553,0.101132594,-0.09974973,-0.11247609
306190.308226835,20000000,0.0014946759,-0.0062025934,0.021079123,0.03359189,-0.096951604,-0.03268814
306190.328226835,0,0.013759613,0.004242733,0.0033225417,-0.016031194,-0.0050649717,-0.052989405
306190.348226835,0,-0.003524512,-0.01330553,0.016218841,0.0045421124,-0.01854419,-0.017271958
306190.368226835,20000000,0.0056515336,0.009810418,-0.009275377,-0.020514645,-0.013940128,-0.012030473
306190.388226835,0,0.0112917125,0.028575316,-0.02379024,-0.08205153,0.05044868,0.046811506
306190.408226835,0,0.028836846,0.041583538,-0.042029977,-0.15382399,0.1818335,0.13883248
306190.428226835,20000000,0.028869182,0.03734064,-0.038205445,-0.18571126,0.36475334,0.22023144
306190.448226835,0,-0.0073218048,0.006358698,-0.0021066666,-0.10797788,0.29302746,0.15944342
306190.468226835,0,-0.016553491,-0.012041941,0.027950108,-0.050173786,0.092652276,0.11797155
306190.488226835,0,-0.009287357,-0.025102854,0.02542013,-0.05677452,0.024475858,0.088919304
306190.508226835,20000000,-0.0020218492,-0.038164616,0.022887647,-0.06337525,-0.04370056,0.05986706
306190.528226835,40000000,0.0052430034,-0.051227108,0.020352602,-0.06997598,-0.11187699,0.03081482
306190.548226835,0,-0.012743205,-0.039219648,0.02846682,0.14314997,-0.19878799,-0.06453718
306190.568226835,0,0.009891659,0.012285024,-0.029077768,0.18518005,-0.08235143,-0.16715741
306190.588226835,20000000,0.0055041015,0.011665404,-0.013856828,0.15417542,-0.11723845,-0.0878092
306190.608226835,0,0.011731297,0.008031353,-0.017365515,0.11179253,-0.019835532,-0.08030089
306190.628226835,0,0.0001359582,0.021629333,-0.01094234,0.06514931,0.0044627786,-0.012753233
306190.648226835,0,0.0024261475,0.012218565,-0.0028030276,0.036973454,0.01761505,0.014971046
306190.668226835,0,-0.001477778,0.014214292,0.002980888,0.01449452,0.035735488,0.03216152
306190.688226835,0,-0.0037330985,0.012518644,0.004791975,-0.0031192284,0.016333142,0.056428686
306190.708226835,0,-0.0027835667,0.006774977,0.0030360222,-0.017895505,0.002643196,0.06803247
306190.728226835,0,0.006924212,-0.004204437,-0.0032363534,-0.017899498,0.008090835,0.06195817
306190.748226835,0,0.0023354888,-0.0029343367,0.0018828511,-0.015262503,0.016953172,0.04005652
306190.768226835,0,-0.0022828877,-0.009270936,0.008415282,-0.0013584634,0.006868937,0.023968266
306190.788226835,0,-0.0025567412,-0.0053797066,0.0057305694,0.01196618,-0.003391169,0.011942634
306190.808226835,0,-0.0027101338,0.0016743392,0.0025697947,0.0066243834,-0.010121161,0.0049542086
306190.828226835,20000000,-0.0022349358,0.0028134882,0.00040990114,-0.0017238366,-0.012091372,-0.008371209
306190.848226835,0,0.00086915493,0.0032398552,-0.005785823,-0.017213818,-0.015384964,-0.01935273
306190.868226835,20000000,-0.01739484,-0.0041349083,-0.0035058856,-0.03155158,-0.039650455,-0.092743665
306190.888226835,0,-0.012324601,-0.025209948,-0.005954981,0.04682793,-0.2044603,-0.19309929
306190.908226835,0,0.0050364435,-0.039742917,-0.022034705,0.06698772,-0.1879909,-0.13324098
306190.928226835,0,0.00029292703,0.033612475,-0.0020909905,0.25348908,-0.12661378,-0.17670557
306190.948226835,0,0.00886023,0.029133812,0.0025814176,0.066487,-0.07424968,0.029754966
306190.968226835,20000000,-0.003072977,-0.047479466,0.031830847,0.043844648,-0.08395718,-0.0130275
306190.988226835,0,0.00012561679,-0.009667173,0.0066373944,0.033506405,-0.081003286,-0.035117574
306191.008226836,20000000,-0.007892042,-0.035563767,0.019268513,0.09907463,-0.14590718,-0.06639914
306191.028226836,0,0.002450049,0.022855595,-0.01803422,0.03169529,-0.0849676,-0.067907095
306191.048181083,0,0.007610286,0.031700097,-0.019299403,0.0041406956,-0.09305653,-0.035289682
306191.068181083,0,0.004298836,0.023987934,-0.01342684,-0.0054893726,-0.06856393,-0.029526567
306191.088181083,20000000,0.0009876788,0.016276062,-0.00755471,-0.015119442,-0.044071335,-0.023763452
306191.108181083,40000000,-0.0023230612,0.008564502,-0.001683116,-0.024749512,-0.019578742,-0.018000336
306191.128181083,0,-0.013091892,-0.0029829443,0.008413672,-0.06781767,-0.0088349935,-0.011685131
306191.148181083,0,0.0033418834,-0.019620985,-0.0006739497,-0.08922455,0.0764297,-0.026239436
306191.168181083,0,-0.002555132,-0.014498889,0.0018060803,-0.08940721,0.09451463,-0.06446123
306191.188181083,20000000,0.019744813,0.025569603,-0.026828706,-0.14493519,0.18355358,-0.075336754
306191.208181083,0,0.02623269,0.021857992,-0.038398206,-0.16349134,0.3054511,0.03736756
306191.228181084,0,-0.00480628,0.039759263,-0.0027720928,-0.092598684,0.3268797,0.19492805
306191.248181084,20000000,-0.0180448,0.013469964,0.01633346,-0.071377814,0.22330612,0.20616776
306191.268181084,0,-0.0072550476,-0.008248106,0.023024201,-0.03307409,0.091678426,0.15591462
306191.288181084,20000000,-0.0075892806,-0.013676107,0.025861204,0.014679816,0.008447677,0.11242454
306191.308181084,0,-0.005362779,-0.0034997016,0.015423596,0.03295684,-0.04498279,0.09631996
306191.328181084,20000000,-0.0010667443,0.0033290684,0.0019515157,0.031362414,-0.05897843,0.079146616
306191.348181084,0,0.0020669699,0.009282112,-0.008826137,0.010728195,-0.044877857,0.07750047
306191.368181084,0,0.0015314519,0.001939565,-0.006646514,0.008524951,-0.023553552,0.06640515
306191.388181084,20000000,0.0009968579,-0.0054034144,-0.004466951,0.0063217063,-0.0022292435,0.05530982
306191.408181084,40000000,0.0004631579,-0.012746766,-0.0022873878,0.004118462,0.019095063,0.044214495
306191.428181084,0,-0.0008073449,-0.018957675,0.0025120974,0.01538336,0.024026282,0.017597714
306191.448181084,20000000,-0.0019023418,-0.01723428,0.0032482147,0.026077023,0.023661958,-0.018865736
306191.468181084,0,-0.001839757,-0.009023964,0.0013731718,0.017232135,0.011266381,-0.053090602
306191.488181084,20000000,-0.0103289485,-0.0064979196,0.000824213,-0.0060801487,0.0081179505,-0.09252189
306191.508181084,0,-0.013768226,-0.023291335,0.01085341,0.024732735,-0.09758977,-0.1422017
306191.528181084,0,-0.008146226,-0.03393288,-0.02946341,-0.05758809,0.02772642,-0.12296961
306191.548181084,0,-0.019319981,-0.009257644,-0.008980572,0.09925015,-0.07574693,-0.16148528
306191.568181084,0,-0.007573545,0.01575011,-0.0012302399,0.14256224,-0.11693673,-0.13463636
306191.588181084,20000000,0.0077700913,0.0076697767,0.005479574,0.14360017,-0.10763608,-0.09531556
306191.608181084,0,0.009120017,-0.0027666688,0.012304306,0.14111792,-0.07865695,-0.032935377
306191.628181084,20000000,0.008861452,-0.00076802075,0.012012839,0.15963064,-0.071814485,0.007791102
306191.648181084,0,0.009209216,0.012065694,0.004534304,0.12250432,-0.062207982,0.050196648
306191.668181084,20000000,0.015876621,0.021698892,-0.011184752,0.101671405,-0.03545228,0.06404269
306191.688181084,0,0.014851302,0.015864491,-0.013127744,0.04271561,0.019015007,0.08143298
306191.708181084,20000000,0.013828605,0.010029957,-0.015071809,-0.016240194,0.0734823,0.09882327
306191.728181084,40000000,0.013876796,0.00997819,-0.017570913,-0.051495373,0.1356442,0.09436383
306191.748181084,0,0.006943792,0.010550365,-0.009015381,-0.08951907,0.18128572,0.12412972
306191.768181084,0,-0.009812921,-0.018137202,0.0012796521,-0.08200298,0.16587444,0.0483395
306191.788181084,20000000,0.033310562,0.028632805,-0.027942121,-0.16220966,0.21138492,0.12805258
306191.808181084,0,0.008018076,0.0033610612,-0.013769507,-0.18707408,0.29338178,0.14361697
306191.828181084,20000000,-0.01644212,-0.00042162836,0.014631867,-0.0742508,0.12415299,0.11094952
306191.848181084,0,0.0038573742,0.005603388,-0.0143761635,-0.04274885,0.17568056,0.066939324
306191.868181084,0,-0.01957792,0.018932313,0.0063575506,-0.061026838,-0.0015732646,0.057888884
306191.888181084,0,-0.02168709,-0.00831157,0.013042271,-0.09421943,-0.11184835,0.008882143
306191.908181084,0,-0.0067272186,-0.022488013,-0.0014180541,-0.05765895,-0.103236124,0.04000121
306191.928181084,0,-0.0107759535,-0.02607657,0.0020790696,0.13849205,-0.1282133,-0.032081094
306191.948181084,0,0.0052066445,0.002720669,-0.029103518,0.10585135,-0.0701936,-0.039377704
306191.968181084,0,0.0058463514,0.007890925,-0.020327508,0.07860005,-0.03853708,-0.0057919174
306191.988181084,0,0.0032013357,0.005257666,-0.011756837,0.053773064,-0.010927053,0.0128347855
306192.008181084,20000000,0.000557214,0.0026239008,-0.0031881928,0.028946081,0.016682975,0.03146149
306192.028181084,40000000,0.0006968677,0.0030993968,0.000117480755,0.006199917,0.018647866,0.03148421
306192.048181084,0,-0.0009639859,-0.00031356514,0.0043658614,-0.007114308,0.01546521,0.029163552
306192.068181084,0,-0.00049218535,-0.0033189356,0.00394994,-0.001068335,0.006006603,0.02594271
306192.088181084,20000000,0.0021216571,-0.004291475,0.0014763474,0.017918525,-0.005831358,0.019692902
306192.108181084,0,0.004816562,-6.312132e-05,-0.00072813034,0.024729988,0.0049403207,0.0076637752
306192.128181084,0,0.004113227,0.0015290082,0.00049108267,0.019927695,0.009331325,-0.008651754
306192.148181084,20000000,-0.00031861663,0.0039564967,0.0052008033,0.002993891,0.0017480948,-0.0226885
306192.168181084,0,-0.0004875958,0.0053085536,-0.00029456615,-0.016147418,0.0063767387,-0.04007914
306192.188181084,0,-0.0129314065,-0.0064120293,0.010330677,0.011209751,-0.12128281,-0.07959536
306192.208181084,0,-0.012435228,-0.0057867765,0.007819533,0.13441648,-0.15714797,-0.16489518
306192.228181084,20000000,-0.01193893,-0.0051576644,0.005304754,0.2576232,-0.19301313,-0.250195
306192.248181084,40000000,0.002207756,0.028914735,-0.003045559,0.17754814,-0.15984496,-0.14139938
306192.268181084,0,0.008915484,-0.001645878,0.01165545,0.14971428,-0.118129134,-0.02125077
306192.288181084,0,0.004856646,0.006536424,0.011884391,0.11748724,-0.1299234,0.011138752
306192.308181085,20000000,0.0008004904,0.014718398,0.012099683,0.0852602,-0.14171767,0.043528274
306192.328181084,40000000,-0.0014493167,-0.004282981,0.013100743,0.054391462,-0.15456504,0.022466537
306192.348181085,0,0.003619343,-0.006696269,-0.0008122921,0.07682076,-0.14325994,-0.016650215
306192.368181085,20000000,0.011895835,0.007484302,-0.019423664,0.07058674,-0.10201114,-0.029898059
306192.388181085,0,0.0054870844,0.019928709,-0.025002897,0.029143963,-0.067969784,-0.03332126
306192.408181085,20000000,-0.0056781173,0.008914784,-0.01021868,0.003328422,-0.069526136,-0.0318706
306192.428181085,0,0.0032731295,-0.0067145824,-0.007212639,-0.008868706,-0.041774742,-0.071003966
306192.448181085,0,-0.0036514997,-0.022112414,0.0071318746,-0.047226977,0.03380967,-0.08535645
306192.488181085,0,-0.0060476363,-0.0015459806,0.00020384789,-0.10008712,0.105767384,-0.060345475
306192.508181085,20000000,0.009899765,0.009913102,-0.01231426,-0.13433029,0.14805727,-0.078441754
306192.528181085,0,0.0019346476,0.017783359,-0.009316862,-0.21583539,0.19334249,-0.040330246
306192.548181085,20000000,0.046830058,0.030336067,-0.031936824,-0.27352133,0.34827304,0.08951755
306192.568181085,0,-0.00032800436,-0.060024425,0.02745086,-0.12247151,0.31973276,0.061234146
306192.588181085,20000000,-0.03955677,0.002343893,0.043135285,-0.018265843,0.03008461,0.112780005
306192.608181085,0,-0.029524624,0.0033495724,0.03337443,0.009034788,-0.002022054,0.10440527
306192.628181085,20000000,-0.0194906,0.004354134,0.023613036,0.036335416,-0.034128718,0.096030526
306192.648181085,40000000,-0.009454817,0.005357519,0.013851047,0.06363605,-0.06623538,0.08765579
306192.668181085,0,-0.0015384555,0.006570816,1.579523e-05,0.049398735,-0.07048858,0.0768645
306192.688181085,0,0.0031614304,0.007613912,-0.008832037,0.028536849,-0.05127522,0.075896874
306192.708181085,0,0.008439302,0.00367935,-0.010630906,0.014821754,-0.015810896,0.06526119
306192.728181085,0,0.0026226044,0.0005993098,-0.002292931,0.00509673,0.011537787,0.05325546
306192.748181085,0,0.00095641613,-0.003961563,0.0035620332,0.00059452653,0.011774099,0.03304831
306192.768181085,20000000,-0.0018459857,-0.0053153485,0.008895814,0.0003992765,0.0013166275,0.012749948
306192.788181085,0,-0.0027270913,-0.007240236,0.008446515,0.003279855,-0.017991232,-0.0036150794
306192.808181085,20000000,-0.0006072521,-0.0032163411,0.0034893155,0.0048613846,-0.02472682,-0.017924283
306192.828181085,0,-0.0015426278,0.0015908331,-0.0013206601,-0.0073002083,-0.025475841,-0.0150111485
306192.848181085,0,0.0005299151,0.003561005,-0.0036777854,-0.020932682,-0.007785894,-0.012523629
306192.868181085,20000000,0.005179584,-0.0039810985,-0.0047932267,-0.020497354,0.015916735,-0.010305359
306192.888181085,0,0.0028106272,-0.0052126944,-0.0037260652,-0.023433583,0.027248306,-0.015883233
306192.908181085,20000000,0.00044173002,-0.00644432,-0.002659142,-0.02636981,0.038579877,-0.021461109
306192.928181085,40000000,-0.0019270182,-0.007675916,-0.0015925765,-0.02930604,0.049911447,-0.027038984
306192.968181085,0,-0.018592477,0.007264644,0.002691865,0.030486897,-0.0100406315,0.0035717152
306192.988181085,20000000,-0.033076078,0.03217289,0.00014555454,0.039141517,-0.031475794,-0.05313101
306193.008181085,40000000,-0.01893738,0.006288886,0.012705326,0.012097044,-0.18310405,-0.081482396
306193.028181085,0,0.0034566224,-0.0042960495,0.008391976,0.03720296,-0.18633054,-0.12424817
306193.048181085,0,0.008344501,0.0043521374,0.006934941,0.049427837,-0.100177564,-0.11752901
306193.068181085,20000000,-0.0011072159,-0.0025459826,0.012910426,0.007819787,-0.08689229,-0.062327676
306193.088181085,0,0.0037645996,0.0015861243,0.0039129257,-0.012170138,-0.06879859,-0.04477138
306193.108181085,20000000,0.009545863,0.009397522,-0.007901132,-0.046065554,-0.030352697,-0.0145858005
306193.128181085,0,0.0062336326,0.015529439,-0.0138812065,-0.030659173,-0.008992501,-0.0039860494
306193.148181085,0,0.0067284107,0.038162917,-0.020526111,-0.049887378,0.036857575,0.06219237
306193.168181085,0,0.031924993,0.038691983,-0.033723354,-0.13767855,0.16756213,0.19896615
306193.188181085,0,0.016114205,0.023111805,-0.0204646,-0.10444549,0.20896706,0.20581317
306193.208181085,20000000,0.00031015277,0.0075499713,-0.0072265863,-0.07121241,0.250372,0.2126602
306193.228181085,40000000,-0.02919972,-0.0018814802,0.030109465,-0.06811888,0.1268917,0.12107755
306193.248181085,0,-0.026539296,-0.02595675,0.03869629,-0.100412935,-0.0752843,0.06407657
306193.268181085,20000000,-0.02420935,-0.05567369,0.029148996,-0.047460422,-0.13033548,0.0010247156
306193.288181085,0,-0.0043959618,-0.053613544,0.013494909,0.21335836,-0.2304033,-0.16007611
306193.308181085,20000000,0.017716855,0.0049872994,-0.025815547,0.094536565,-0.14832112,-0.111381896
306193.328181085,0,-0.0018322766,0.015068978,-0.022275627,0.024107367,-0.075277366,-0.07417475
306193.348181085,0,-0.0017680228,0.0151652545,-0.015216887,-0.0011032932,-0.019883301,-0.0027778447
306193.368181086,20000000,0.001611799,0.017614082,-0.018054485,-0.011364751,0.033377733,0.0006347799
306193.388181086,0,-0.00836578,0.00587523,-0.0003914833,-0.03264776,0.029898336,0.030885682
306193.408181086,0,-0.007073462,0.002432838,0.0035924911,-0.010442561,0.026811883,0.029029204
306193.428181086,20000000,-0.0060360134,0.004245922,0.0040620565,-0.0032285312,0.017762203,0.036326557
306193.448181086,0,-0.0029266775,0.0024475455,0.0023533702,0.000932863,0.0056997994,0.04042861
306193.468181086,0,-0.0020565987,0.0016024709,0.0005504489,-0.0032091946,0.010336036,0.040269062
306193.488181086,20000000,-0.0011862218,0.0007573217,-0.0012524724,-0.0073512527,0.014972273,0.04010951
306193.508181086,40000000,-0.00031548738,-8.793175e-05,-0.003055334,-0.01149331,0.01960851,0.039949965
306193.528181086,60000000,-0.0016815364,-0.00028057396,-0.0024261475,-0.01646946,0.031850625,0.038921773
306193.548181086,0,-6.175041e-05,-0.0048975796,-0.0022650957,-0.016813425,0.039395187,0.029266682
306193.568181086,0,-0.0066361725,-0.0077102333,0.0017923713,-0.024587177,0.035802923,0.0041759796
306193.588181086,20000000,-0.0009810328,-0.008219421,0.0014216304,-0.0075758807,0.005867973,0.012684416
306193.608181086,0,0.018333524,-0.0063676685,-0.00876075,0.0029851412,0.11640134,0.023354985
306193.628181086,0,0.009331077,-0.011268571,-0.004747629,0.093572155,0.10715205,-0.009726368
306193.648181086,0,-0.003316611,0.0041688234,0.0034879446,0.033610612,-0.014329828,-0.00518757
306193.668181086,20000000,-0.0038624108,-0.0080937,0.008464277,0.016268492,-0.09794405,-0.054201983
306193.688181086,0,0.00063836575,-0.013525575,0.009662211,0.0444242,-0.12158352,-0.07700387
306193.708181086,20000000,0.0058194995,-0.003848344,0.006342411,0.059191093,-0.11292518,-0.09743643
306193.728181086,0,0.0039954484,-0.006528899,0.009011745,0.056878373,-0.08783035,-0.09063996
306193.748181086,0,0.0025399923,0.0003902018,0.006588757,0.04107207,-0.06803705,-0.08364027
306193.768181086,20000000,0.0010845363,0.007310584,0.004164815,0.025265766,-0.048243746,-0.076640576
306193.788181086,0,-0.00025591254,0.012512922,0.0019081831,0.01236145,-0.030857181,-0.06895816
306193.808181086,20000000,-0.001595676,0.01771526,-0.00034821033,-0.00054286607,-0.013470616,-0.06127575
306193.828181086,40000000,0.0057841837,0.0238287,-0.0072592497,-0.012210453,-0.0076391087,-0.054723497
306193.848181086,0,0.0071721375,0.02844724,-0.0088425875,-0.04615567,-0.001871706,-0.053227544
306193.868181086,20000000,0.0069823265,0.01745072,-0.0032015443,-0.06960268,0.009894035,-0.0340778
306193.888181086,0,0.009069443,0.012233302,-0.0038391352,-0.091450065,0.06348857,-0.027369093
306193.908181086,0,0.018251568,0.020584568,-0.007687986,-0.13664328,0.113762766,0.043917593
306193.928181086,20000000,0.041507334,0.019541368,-0.028200328,-0.1890114,0.28899848,0.13203603
306193.948181086,0,0.0001052022,0.021471709,0.0012834668,-0.15302491,0.3292486,0.17308919
306193.968181086,0,-0.030619174,-0.005675614,0.026336193,-0.1281909,0.12607615,0.13529095
306193.988181086,0,-0.018580377,-0.03216338,0.023147345,-0.07982493,-0.022015378,0.018440247
306194.008181086,0,-0.0017964542,-0.11292206,0.056219637,0.17229432,-0.12060993,-0.11895658
306194.028181086,0,0.0062069893,-0.017243147,0.004537165,0.12137517,-0.14345141,-0.08442029
306194.048181086,0,-0.0015061796,0.009656072,-0.0007724166,0.10922849,-0.10512178,-0.06008804
306194.068181086,0,-0.0037011206,0.012686029,-0.0044725537,0.08008741,-0.06143853,-0.03288821
306194.088181086,0,-0.0017164648,0.009947255,-0.0048881173,0.054694846,-0.02563648,-0.001616519
306194.108181086,20000000,0.00026881695,0.0072080046,-0.0053058863,0.02930228,0.010165576,0.029655177
306194.128181086,40000000,-0.0015509725,0.0047997385,0.00035643578,0.00658432,0.022241227,0.0508232
306194.148181086,0,-0.0021199286,0.0011577308,0.0036832094,0.002643892,0.015929138,0.06344976
306194.168181086,0,0.0006276667,-0.0029227436,0.0020023584,0.0074447896,0.008558655,0.05794262
306194.188181086,20000000,0.0033760667,-0.0070036203,0.00032156706,0.012245687,0.0011881711,0.05243548
306194.208181086,0,-2.2381544e-05,-0.0062764734,0.0013523102,0.017500246,0.00062108354,0.03547042
306194.228181086,20000000,-0.0034548938,-0.0066176355,0.0052807927,0.019271448,-0.010914038,0.023263002
306194.248181086,0,-0.0015991926,-0.0051720887,0.0021676421,0.011071565,-0.009872019,0.0074150264
306194.268181086,0,-0.0011816025,-0.0018314272,0.0007506609,-0.0011150073,-0.008245169,-0.0036949106
306194.288181086,0,-0.00272429,0.0018330663,-0.00018441677,-0.016825177,-0.002174992,-0.008285446
306194.308181086,20000000,-0.0034399033,0.0006069839,-0.0012953877,-0.02833543,0.00020133494,-0.016072528
306194.328181086,0,0.0013332963,-0.0015472174,-0.0043303967,-0.033763196,0.02490141,-0.02734667
306194.348181086,0,-0.0057269633,-0.008477539,0.00041538477,-0.014373414,-0.002736332,-0.016934311
306194.368181086,0,0.0138733685,-0.050415024,-0.006407678,0.03338139,0.018888311,-0.04164833
306194.388181086,0,0.013855994,-0.013208434,-0.0102161765,0.016177848,-0.06029311,-0.04642871
306194.408181086,20000000,0.01383844,0.024000078,-0.014026284,-0.0010256991,-0.13947454,-0.051209096
306194.428181086,40000000,0.0031965375,0.0019317865,0.011843741,0.059132025,-0.1501354,-0.11127644
306194.448181087,0,0.000315696,-0.00042891502,0.01090914,0.07256703,-0.13079827,-0.06066094
306194.468181087,0,0.00608474,0.0037769526,0.0015697479,0.051407613,-0.095023915,-0.0574644
306194.488181087,20000000,0.011854321,0.007985562,-0.0077733994,0.030248199,-0.059249565,-0.054267857
306194.508181087,0,0.0029465556,-0.0010510832,-0.0031728148,-0.0016975068,-0.04971724,-0.051267404
306194.528181087,20000000,0.00022867322,-0.003425479,-0.0024402738,0.008761727,-0.057398673,-0.055457857
306194.548181087,0,0.005223602,0.0047667027,-0.011365533,0.007961793,-0.028963998,-0.058237974
306194.568181087,20000000,0.003666401,0.009648487,-0.0113610625,-0.011781076,-0.01073865,-0.049678367
306194.588181087,0,0.0015790462,0.0123150945,-0.008398175,-0.03668838,0.005408464,-0.042608008
306194.608181087,0,-0.0029090047,0.0066981316,-0.0020493865,-0.07235205,0.033527955,-0.015653022
306194.628181087,0,0.0020824969,0.005589649,-0.003661573,-0.09183562,0.10111333,0.02028181
306194.648181087,0,-0.0034999251,-0.015462697,0.0018646717,-0.06549291,0.07325746,0.005715736
306194.668181087,0,0.03884554,0.036591604,-0.040436924,-0.16133752,0.20948234,0.14287132
306194.688181087,0,-0.009804219,0.00953345,0.0044032335,-0.13194473,0.19562082,0.17069909
306194.708181087,0,-0.00986138,-0.0096769035,0.01646167,-0.10821698,0.11268453,0.11707172
306194.728181087,20000000,-0.009919673,-0.028881297,0.02851504,-0.08448923,0.029748246,0.063444346
306194.748181087,40000000,-0.07257265,-0.13480346,0.0553239,0.06276475,-0.118619025,0.090849236
306194.768181087,0,-0.04931891,-0.0643298,0.03015387,0.0668891,-0.090516806,0.06363039
306194.788181087,20000000,-0.02606541,0.006144628,0.004978478,0.07101345,-0.06241458,0.03641154
306194.808181087,0,-0.014887214,0.016577587,-0.009284854,0.011091776,-0.011005893,0.056271415
306194.828181087,0,-0.0046040416,0.0033490956,-0.008127391,-0.00010159612,0.018535802,0.07832093
306194.848181087,20000000,0.00090664625,0.0012600124,-0.005991876,-0.01274293,0.046920605,0.082307495
306194.868181087,0,-0.00067543983,-0.0014332086,0.000277102,-0.03289925,0.032299228,0.08305419
306194.888181087,0,-0.00056421757,-0.01028502,0.0050674677,-0.026191179,0.026183236,0.05085023
306194.908181087,20000000,-0.005407572,-0.020136163,0.011621237,0.004281357,0.000114388764,0.031208888
306194.928181087,0,-0.0052479804,-0.013724625,0.009089768,0.025661053,-0.024151344,0.014345948
306194.948181087,0,-0.0025393069,-0.008049488,0.0050085187,0.031752408,-0.026477199,-0.010994522
306194.968181087,0,0.0015776455,-0.0011963695,-0.0010054111,0.015932977,-0.013691266,-0.034527075
306195.008181087,0,0.0060008466,0.004241109,-0.003305316,-0.016835341,0.020748034,-0.066564426
306195.028181087,20000000,0.0008240938,0.008397758,0.0034893155,-0.032964867,0.027969513,-0.070465796
306195.048181087,0,-0.00064995885,0.010595068,0.0040016174,-0.036172904,0.038338583,-0.058961514
306195.068181087,20000000,-0.0033588707,0.001861006,0.0138680935,0.0004903674,-0.044129644,-0.05799218
306195.088181087,0,0.00091674924,-0.019199342,-0.0074440837,0.012301312,-0.032035362,-0.09012082
306195.108181087,20000000,-0.02150467,0.0046161115,0.010289133,0.106959134,-0.15136427,-0.12616071
306195.128181087,0,0.0019572675,0.047106355,-0.0039349794,0.0980678,-0.16257699,-0.088384286
306195.148181087,20000000,0.012408853,0.010656014,0.002070427,0.057596546,-0.1132994,-0.0797493
306195.168181087,0,0.006075293,-0.0012427866,0.0022475123,0.033250608,-0.08135305,-0.07028461
306195.188181087,20000000,0.0066738725,-0.009601429,-0.0010259748,0.033706654,-0.0637532,-0.060183354
306195.208181087,0,0.00567466,-0.021447152,-0.00024229288,0.09448888,-0.026731975,-0.034760572
306195.228181087,0,-0.0048629344,0.0084192455,0.005186856,0.108484365,-0.04227961,-0.036158375
306195.248181087,20000000,0.00499174,0.030383617,-0.012062728,-0.021801554,-0.03761233,-0.026543284
306195.268181087,0,0.0051651597,0.0011268556,-0.00074869394,-0.073370084,0.02710763,-0.061813645
306195.288181087,0,0.0011160076,-0.002267167,-0.0011293292,-0.09585288,0.06725508,-0.037116453
306195.308181087,0,-0.005240947,-0.002810195,0.006637037,-0.10341302,0.08156299,0.0023295097
306195.328181087,0,0.030110776,0.031189948,-0.026691437,-0.16081043,0.20352443,0.1125361
306195.348181087,0,0.008303851,0.008703783,-0.022711992,-0.18214074,0.28647092,0.13765083
306195.368181087,20000000,-0.0052057803,0.010890007,-0.0037605166,-0.14400592,0.18719293,0.17499495
306195.388181087,0,-0.0028078854,-0.002078399,0.009461045,-0.11016029,0.13650087,0.16652428
306195.408181087,20000000,-0.013587803,-0.032821357,0.025568902,-0.05556556,0.06500314,0.10637069
306195.428181087,0,-0.01659602,-0.03151405,0.017201781,-0.03844995,-0.0060216114,0.03969732
306195.448181087,20000000,-0.019602329,-0.03020598,0.008832395,-0.021334343,-0.077046365,-0.026976049
306195.468181087,40000000,-0.022606552,-0.02889736,0.0004608631,-0.004218735,-0.14807111,-0.09364941
306195.488181087,0,0.008267105,0.03622119,-0.040462315,0.11260763,-0.07404664,-0.09331124
306195.508181087,20000000,0.013306916,0.020595446,-0.028265297,0.049680963,0.008108363,-0.099966094
306195.528181088,0,0.0010192394,0.022496104,-0.015892506,-0.008201957,0.022267649,-0.022129431
306195.548181088,20000000,0.0010043681,0.009749547,-0.003023684,-0.015172463,0.03848634,0.031820655
306195.568181088,0,-0.0008815825,-0.00014357269,0.0034580827,-0.02143297,0.04058511,0.037404336
306195.588181088,0,-0.0008196831,0.002344519,0.004452884,-0.0006499719,0.022740545,0.04670527
306195.608181088,20000000,-0.000757426,0.004832804,0.0054477453,0.020133024,0.0048959795,0.056006197
306195.628181088,40000000,-0.00069481134,0.007321313,0.006442547,0.040916022,-0.012948588,0.065307125
306195.648181088,0,-0.00039741397,-0.0021814853,0.0030933022,0.062492795,-0.026356066,0.061754573
306195.668181088,20000000,0.00482893,0.0037884116,-0.0032628775,0.054664332,-0.018604897,0.0623597
306195.688181088,0,0.0013084412,0.0011954606,0.0013048649,0.054817088,-0.0016925372,0.05631233
306195.708181088,20000000,-0.00035399199,0.0001758337,0.0026735663,0.040479634,0.006689571,0.037296925
306195.728181088,0,-0.0015998781,0.0012341589,0.0058823824,0.024528833,0.0008519739,0.03180465
306195.748181088,20000000,-0.0030560791,0.004591763,0.0028575659,0.009414593,-0.011517316,0.021790482
306195.768181088,0,-0.00036084652,-0.0005492568,0.0007107854,-0.009512911,-0.017042987,-0.00033820793
306195.788181088,20000000,-0.0023504198,5.427003e-05,0.0017272234,-0.025947293,-0.024731692,-0.01805105
306195.808126792,0,0.0005325377,0.00055297685,-0.002044258,-0.042007398,-0.017971242,-0.033531886
306195.828126792,20000000,0.0003504753,-0.0012183189,-0.0044518113,-0.04739937,-0.0014774371,-0.043647327
306195.848126792,0,0.00076019764,-0.0004246682,-0.005303204,-0.04427108,0.00035186845,-0.033305828
306195.868126792,20000000,0.0016226172,-0.00062291324,-0.0045278072,-0.03023422,0.011156131,-0.0260444
306195.888126792,0,0.0010401309,-0.00015501678,-0.0022993088,-0.012906523,0.0030444395,-0.021603461
306195.908126792,20000000,0.00045764446,0.00031280518,-7.092953e-05,0.0044211745,-0.0050672516,-0.017162524
306195.928126792,0,-0.0017398,-0.0038402528,0.008189559,0.054704346,-0.0826051,-0.05329643
306195.948126792,20000000,-0.0039367676,-0.007992059,0.016448379,0.10498752,-0.16014296,-0.08943033
306195.968126792,0,0.0074249804,-0.001348421,0.003763318,0.07392429,-0.121831074,-0.07828684
306195.988126792,20000000,0.01878807,0.0052986294,-0.008927882,0.04286106,-0.0835192,-0.06714335
306196.008126792,0,0.0049498677,0.0011646599,0.0036498308,0.02613915,-0.07521603,-0.04541304
306196.028126792,20000000,-0.000436306,-0.00044183433,0.0031931996,0.015877957,-0.061288677,-0.034407463
306196.048126792,0,-0.00028523803,-0.0002888739,0.0020859241,0.0185881,-0.054886438,-0.0233755
306196.068126792,20000000,-0.00013378263,-0.00013554096,0.0009777546,0.021298243,-0.048484202,-0.012343539
306196.088126792,0,0.001826793,0.0005453974,-0.0008097887,0.026370535,-0.043346524,-0.01480458
306196.108126792,20000000,0.0037875175,0.001226604,-0.0025981069,0.031442825,-0.038208846,-0.017265622
306196.128126792,40000000,0.0033141375,0.003576517,-0.0044991374,0.034130134,-0.030436799,-0.01636987
306196.148126792,0,0.0030947924,0.0046655983,-0.005380094,0.035908204,-0.020721957,-0.0070940303
306196.168126792,20000000,0.0047525465,0.0065606385,-0.006726384,0.039059825,-0.0059417505,-0.0029742229
306196.188126792,0,0.002937585,0.008406058,-0.004075825,0.029971778,-0.00027618324,0.0075510726
306196.208126792,20000000,0.0011227429,0.010251388,-0.0014257431,0.020883732,0.0053893845,0.01807637
306196.228126792,40000000,0.0029328763,0.012219757,-0.003345549,0.0014325734,0.014675172,0.024786681
306196.248126792,0,-0.00044557452,0.011277199,-0.00011688471,-0.018851975,0.016253147,0.029273478
306196.268126792,0,-0.0023180246,0.006927505,-0.00086236,-0.039898656,0.01851147,0.036376562
306196.288126792,0,-0.0010245442,0.005094573,-0.0032184124,-0.047947712,0.027217623,0.033109758
306196.308126792,0,-0.0041380823,0.0018296838,-0.0011717677,-0.05268278,0.02082976,0.039062988
306196.348126792,0,-0.001989752,-0.0040281266,-0.0031958222,-0.051303387,0.026104491,0.023408849
306196.368126792,0,-0.0019358993,-0.008835405,-0.0019835234,-0.034095734,0.027683906,0.0082099
306196.388126792,20000000,-0.0034720004,-0.009563267,-0.00016516447,-0.011126198,0.019027693,-0.0027194833
306196.408126792,0,-0.004499495,-0.0022191852,0.00017780066,-0.0017557824,0.013800489,-0.007419248
306196.428126792,20000000,-0.0021099448,0.00039432943,0.00038051605,-0.0016240182,0.0078107165,-0.008216744
306196.448126792,0,-0.00088503957,0.00016541779,0.00015968084,0.004623522,0.005739145,-0.008440067
306196.468126792,0,-0.00016736984,-0.0021191388,-0.0018336773,0.016366977,0.0060748993,-0.009644166
306196.488126792,0,0.0006081164,-0.001840502,-0.0017969012,0.016709376,0.0043892204,-0.010817801
306196.508126792,20000000,0.001383543,-0.0015618801,-0.0017601848,0.017051777,0.002703541,-0.011991436
306196.528126792,40000000,-0.0025818944,-2.0503998e-05,0.00083881617,0.013849129,0.010020142,-0.013389358
306196.548126792,0,-0.0026451945,0.0018268675,-0.0012460351,0.011198759,0.013464062,-0.012525197
306196.568126792,0,-0.0018095672,0.0011922866,0.00024574995,-0.0054785553,0.032251574,-0.011978705
306196.588126792,20000000,-0.0009737313,0.00055758655,0.0017369986,-0.02215587,0.051039085,-0.011432215
306196.608126792,0,0.0074650645,0.0077217966,-0.004818082,-0.058581986,0.07814045,0.0094391825
306196.628126792,20000000,0.010150373,0.013891757,-0.008119464,-0.10020416,0.122691706,0.042470787
306196.648126792,0,0.007965565,0.0058533847,-0.003422439,-0.0975657,0.15167968,0.06299758
306196.668126792,0,-0.003130436,-0.0010381341,0.00990206,-0.061029766,0.1057,0.035594057
306196.688126792,0,-0.003763944,-0.009427771,0.0124800205,-0.041572426,0.053812146,-0.012224674
306196.708126793,0,-0.016080528,-0.068234906,0.05513811,0.09391233,-0.08556783,-0.037126843
306196.728126793,20000000,-0.0054979026,0.00855422,0.012196422,0.0071459636,-0.045562234,0.026766058
306196.748126793,0,-0.004157126,0.007088691,0.0053564906,0.030671995,-0.044611774,0.01392919
306196.768126793,20000000,-0.008140355,0.010784343,0.0027659535,0.044399828,-0.036732726,0.018286347
306196.788126793,0,-0.005706042,0.00947848,-0.0032174587,0.030554175,-0.015505819,0.02759403
306196.808126793,0,0.00034472346,0.0058899373,-0.0067057014,0.007906092,0.012082415,0.024681592
306196.828126793,0,-0.0016656518,0.0013217926,-0.0013095737,-0.0055547813,0.008985208,0.036005944
306196.848126793,0,0.00011846423,-0.0030436665,0.00026726723,-0.011438543,0.0082105845,0.030942041
306196.868126793,0,-0.0012622178,-0.0034100711,0.0025152564,-0.007875746,0.0024223565,0.019286271
306196.888126793,20000000,-0.00264287,-0.0037764758,0.004763305,-0.0043129493,-0.003365872,0.007630499
306196.908126793,40000000,-0.0026054382,-0.0045553744,0.0052099824,-0.007610372,-0.01244426,0.00043847272
306196.928126793,0,-0.0011902452,-0.005770117,0.0033296943,-0.014816787,-0.01740166,-0.010261837
306196.948126793,20000000,-0.0015225708,-0.003987193,-0.00032770634,-0.023999192,-0.016869713,-0.01878863
306196.968126793,0,-0.0015115142,-0.0005193949,-0.00076907873,-0.03172914,-0.029657014,-0.028262816
306196.988126793,20000000,-0.002371639,-0.0010092854,0.00090175867,-0.015245361,-0.04128695,-0.05153181
306197.008126793,0,-0.00030443072,-0.00049065053,0.0013166666,-0.008412385,-0.04562245,-0.051548786
306197.028126793,20000000,-0.0061924756,-0.025191963,0.007831156,0.08323408,-0.12594622,-0.14355302
306197.048126793,0,-0.0044380426,-0.014189854,0.009094894,0.14454913,-0.22201464,-0.15383181
306197.068126793,0,-0.0040804744,-0.010079578,0.011832535,0.11199757,-0.18889213,-0.0507662
306197.088126793,0,-0.0059440434,-0.011635184,0.011600375,0.08208854,-0.14726545,-0.048092924
306197.108126793,20000000,-0.007807821,-0.013188645,0.011363983,0.052179508,-0.105638765,-0.04541965
306197.128126793,40000000,0.005086839,-0.017130718,-0.0020648837,0.06171404,-0.077717386,-0.057083376
306197.148126793,0,0.003763616,-0.0053551793,-0.0056543946,0.07245291,-0.04122435,-0.043185074
306197.168126793,0,-0.00075253844,0.0066082776,0.00010615587,0.033000734,-0.02762166,-0.03291729
306197.188126793,20000000,-0.00526914,0.018571481,0.005866289,-0.006451439,-0.014018973,-0.02264951
306197.208126793,40000000,0.0037001073,-5.722046e-05,0.004246056,-0.0039547104,0.009183105,-0.02943087
306197.228126793,0,0.000113248825,0.0023770481,0.006961167,-0.01782019,-0.007477347,-0.035472177
306197.248126793,0,-0.0013186336,0.0032140464,0.001599133,-0.045850206,-0.019931741,-0.043531865
306197.268126793,20000000,-0.00016596913,-0.00024570525,0.0015399456,-0.032783806,-0.026160963,-0.040405244
306197.288126793,0,0.0007338524,0.00074250996,-0.0025749207,-0.03152604,-0.033473354,-0.045761324
306197.308126793,0,-0.00048416853,0.0057875067,-0.008267462,-0.035821453,-0.017850146,-0.039538544
306197.328126793,20000000,0.0057352483,0.0038741678,-0.013792455,-0.034897506,0.010416903,-0.048089013
306197.348126793,0,0.002937615,0.0015849471,-0.006448388,-0.04041079,0.053314894,-0.02901356
306197.368126793,20000000,0.0014512539,-0.0020246953,-0.0013837814,-0.05151601,0.08172573,-0.00654817
306197.388126793,0,-0.0009044707,-0.0023198426,0.0011211038,-0.07190326,0.09759054,0.01959507
306197.408126793,20000000,-0.003259033,-0.0026120543,0.0036169887,-0.092290506,0.113455355,0.04573831
306197.428126793,40000000,-0.005612433,-0.0029011965,0.006103933,-0.11267776,0.12932017,0.07188155
306197.448126793,0,0.011570156,0.007914111,-0.00080674887,-0.15673472,0.13157794,0.10764401
306197.468126793,20000000,0.0063953996,-0.009038389,-0.010428309,-0.14893353,0.23096275,0.052079916
306197.488126793,0,-0.041535586,-0.081869125,0.040864706,-0.018734336,0.07440272,0.20324449
306197.508126793,0,-0.024008602,0.024472132,-0.0027244687,-0.016661584,0.09434209,0.14662449
306197.528126793,20000000,-0.017310709,0.009225503,0.011698186,-0.028535102,-0.0017153025,0.06786748
306197.548126793,0,-0.007389426,-0.008982539,0.008470297,-0.033077788,-0.03407495,0.010326296
306197.568126793,20000000,-0.002453059,-0.000891611,0.0042969584,0.0025291257,-0.04598093,0.008780955
306197.588126793,0,-0.0008497536,0.005230725,-0.0011812449,0.015572535,-0.029220117,0.0016548568
306197.608126793,20000000,0.009837866,0.011837989,-0.012843549,-0.0021675732,-0.025085881,0.011849378
306197.628126793,0,0.014331192,0.011084214,-0.013443172,-0.016585186,0.012688257,0.0011100275
306197.648126793,0,-0.006102532,0.012032405,0.00268054,-0.008408084,0.017230026,0.011264115
306197.668126793,0,-0.006045729,0.008054882,0.0037192106,0.005046862,0.008576878,0.023264404
306197.688126793,20000000,-0.0059883893,0.004077077,0.0047578216,0.018501807,-7.62688e-05,0.035264693
306197.708126793,40000000,-0.005930543,9.9122524e-05,0.0057963133,0.031956755,-0.008729415,0.047264986
306197.728126793,60000000,-0.0058722496,-0.0038790405,0.0068345666,0.0454117,-0.017382562,0.05926528
306197.748126793,0,-0.001972258,-0.002690941,0.0033333302,0.056874722,-0.013171557,0.058718294
306197.768126793,0,-0.0031326711,-0.002777338,0.0028344989,0.05882834,-0.017900085,0.059733417
306197.788126794,20000000,-0.0042912364,-0.00286448,0.002333641,0.06078196,-0.022628615,0.06074854
306197.808126793,40000000,0.0011888742,-0.0066542327,-0.00094234943,0.075229794,-0.011523989,0.053954776
306197.828126794,0,0.0020525753,-0.0046435,-0.0026988983,0.09197453,-0.0035428489,0.053796485
306197.848126794,0,-1.0579824e-05,-0.0036743283,0.00042128563,0.115346715,0.0057622064,0.06404585
306197.868126794,20000000,-0.0027796924,-0.0020715445,0.002193451,0.13176265,0.0022698515,0.08500841
306197.888126794,0,-0.0017366409,-0.002998218,0.0032797456,0.15818278,-0.0024378682,0.11014174
306197.908126794,20000000,0.0024102926,0.0028015524,-0.0032330155,0.16086626,-0.0042328294,0.12166025
306197.928126794,0,6.1541796e-05,-0.00235039,0.0010910034,0.17062345,0.0056682713,0.1313775
306197.948126794,0,-0.00074356794,-0.0039548576,0.0027305484,0.19568957,0.007819692,0.1500232
306197.968126794,20000000,0.0006430149,0.0048602074,-0.005117357,0.20587051,0.014721325,0.15118848
306197.988126794,0,-0.0008536875,0.002265513,8.445978e-05,0.1772399,0.010752631,0.13646142
306198.008126794,20000000,-0.0023405552,-0.00033260882,0.0052753687,0.14860928,0.006783938,0.12173436
306198.028126794,40000000,-0.003817439,-0.002934128,0.01045537,0.11997867,0.0028152447,0.107007295
306198.048126794,0,-0.0029504597,-0.0054678023,0.0063254833,0.10994516,-0.015377093,0.08578391
306198.068126794,20000000,0.0059013367,-0.0057088584,-0.0046184063,0.079161145,-0.0074312873,0.03260713
306198.088126794,0,0.009267896,-0.0039009154,-0.0073767304,0.051117804,-0.0065959455,-0.0007163659
306198.108126794,20000000,0.0053296983,-0.004639283,-0.0032531023,0.030838687,0.01419658,-0.038578477
306198.128126794,0,-0.00037810206,0.0029538572,0.0024930835,0.022006935,0.018895194,-0.042300276
306198.168126794,0,0.0070402324,0.007839426,-0.0076798797,0.032312937,0.02271197,-0.022758093
306198.188000333,0,-0.00029359967,0.00956658,-0.00401989,0.023791462,0.021180999,-0.00020206417
306198.208000333,0,-0.0013085902,0.005865544,-0.0022274256,0.032983094,0.010017765,0.016578618
306198.228000333,20000000,0.00039681792,0.0003388226,-0.0029366016,0.034301627,0.0033292393,0.02944788
306198.248000333,0,-0.0020441115,0.0023956448,-0.0026096702,0.022612069,0.0070933085,0.03500233
306198.268000333,0,-0.0019780993,-0.0012007654,-0.0020450354,0.018243361,0.0122172525,0.03166539
306198.288000333,20000000,-0.0019117296,-0.00479722,-0.001480639,0.013874652,0.017341197,0.028328449
306198.308000333,40000000,-0.0018448532,-0.008393586,-0.0009163618,0.009505944,0.022465141,0.024991509
306198.328000333,60000000,-0.0029746592,-0.009759188,0.0006079078,-0.0016902285,0.03100434,0.018777963
306198.348000334,0,-0.0060332417,-0.012614191,0.005431175,-0.011926604,0.03222318,0.0064523323
306198.368000334,0,-0.0062771738,-0.014022082,0.006854892,-0.014514141,0.022155786,-0.0022524511
306198.388000334,20000000,-0.0054956973,-0.015379339,0.007344246,-0.022173017,0.02482431,-0.024653766
306198.408000334,0,-0.0045095384,-0.0177643,0.0070226192,-0.012756951,0.01638085,-0.040969655
306198.428000334,0,-0.0037936568,-0.012821138,0.0043855906,-0.0025189267,0.011225626,-0.058884002
306198.448000334,0,-0.002386123,-0.006583065,0.0012494922,-0.0017157404,0.006278359,-0.07454695
306198.468000334,0,-0.0010257959,0.00039717555,-0.0029337406,-0.010746407,0.007866195,-0.08431239
306198.488000334,0,0.000579834,0.005684197,-0.0033478737,-0.016569488,0.0075714486,-0.08158843
306198.508000334,0,0.0013502836,0.0065758526,-0.0034590364,-0.030435106,0.0080104675,-0.07302541
306198.528000334,20000000,0.0020491183,0.004907608,-0.00297606,-0.038805757,0.012000889,-0.063489646
306198.548000334,0,0.004355788,0.005455032,-0.00517267,-0.046003364,0.020480607,-0.053095173
306198.568000334,0,0.0034758747,0.0019804686,-0.002096057,-0.037136853,0.03141828,-0.039175693
306198.588000334,0,0.0039646924,0.005389929,-0.0020757318,-0.04314454,0.029959798,-0.032382347
306198.608000334,20000000,0.0044539273,0.00879918,-0.0020566583,-0.049152225,0.028501317,-0.025588999
306198.628000334,40000000,0.004943818,0.012208149,-0.0020388365,-0.05515991,0.027042836,-0.01879565
306198.648000334,60000000,0.004733175,0.009836614,-0.0003476143,-0.06827128,0.025837371,-0.03052759
306198.668000334,0,-0.0014649034,0.012436628,0.0024113655,-0.09914025,0.014149866,-0.04061205
306198.688000334,0,-0.003978312,0.009424418,0.0078037977,-0.12955044,-0.017292105,-0.053403623
306198.708000334,0,0.0001103878,-0.00019772351,0.008244872,-0.15163647,-0.0405596,-0.0748842
306198.728000334,0,-0.0027301013,-0.0065842867,0.010607302,-0.16138877,-0.055678934,-0.09357448
306198.748000334,0,-0.0021419525,-0.0066601485,0.0062142015,-0.15940098,-0.066823564,-0.11247275
306198.768000334,0,-0.0002990663,-0.0068036467,0.001762569,-0.17217083,-0.06377486,-0.12314869
306198.788000334,20000000,0.0010448098,-0.010814458,0.002937913,-0.17303598,-0.06066117,-0.13033749
306198.808000334,0,-0.0005133748,-0.010138914,0.0029933453,-0.16572393,-0.048450522,-0.13600515
306198.828000334,20000000,-0.00046038628,-0.0075543225,-0.00023204088,-0.16314714,-0.03970949,-0.1354301
306198.848000334,0,-0.0010131896,-0.008390173,-0.0019943118,-0.15110616,-0.026100688,-0.13725981
306198.868000334,0,-0.0019260943,-0.0068101734,-0.0021165013,-0.14123888,-0.018593695,-0.13410264
306198.888000334,0,-0.0018573105,-0.0061939657,-0.001349628,-0.13038945,-0.011443111,-0.1316462
306198.908000334,20000000,-0.0017808676,-0.005579874,-0.0005893707,-0.11954002,-0.0042925263,-0.12918974
306198.928000334,40000000,-0.001696527,-0.0049681365,0.0001642704,-0.10869059,0.0028580585,-0.1267333
306198.948000334,0,-0.0013088882,-0.0052715093,0.00097072124,-0.09558219,0.010707279,-0.13048984
306198.968000334,0,-0.0018478632,-0.0056037456,0.004977286,-0.08137551,0.0056712856,-0.12687841
306198.988000334,20000000,-0.0026067197,-0.002482161,0.0050768256,-0.06982655,-6.008707e-05,-0.122658245
306199.008000334,0,-0.0015827119,-0.0007927269,0.0019068718,-0.06195521,-0.010506124,-0.111588545
306199.028000334,0,0.0033705533,-0.000751704,-0.001175344,-0.05587186,-0.010310126,-0.10866968
306199.048000334,0,0.0038127303,-0.00023683906,-7.3194504e-05,-0.048243035,-0.00038935244,-0.11149169
306199.068000334,20000000,0.001885891,0.0024531186,0.002492249,-0.04484435,-0.0011374911,-0.11660015
306199.088000334,0,-4.9352646e-05,0.004339084,0.004557073,-0.044961322,-0.009054498,-0.11754928
306199.108000334,0,0.0006764531,0.0050264746,0.0042716265,-0.043960597,-0.016964482,-0.11837922
306199.128000334,0,0.00017914176,0.0050905347,0.0044911504,-0.034151886,-0.021302665,-0.11543241
306199.148000334,0,-0.00016716123,0.009286404,0.002144158,-0.02353711,-0.020696193,-0.09667425
306199.168000334,0,0.0025633574,0.014041647,-0.0015451908,-0.018896867,-0.017030224,-0.07913006
306199.188000334,0,0.0022349358,0.013736874,-0.0019153357,-0.019473294,-0.013974108,-0.056415647
306199.208000334,20000000,0.0019074678,0.013432041,-0.0022859573,-0.02004972,-0.010917991,-0.033701234
306199.228000334,40000000,0.0027697384,0.009722993,-0.0034379363,-0.016452175,0.0029427642,-0.022808969
306199.248000334,0,0.0012114644,0.00806883,-0.0014135242,-0.007826105,0.006410827,-0.009559771
306199.268000334,20000000,-0.00066676736,0.007920042,-9.417534e-06,-0.0023022788,0.0049330667,-0.00069547724
306199.288000334,0,-0.00020989776,0.0070192814,0.00024366379,-0.0018926521,0.0020685415,0.0068776803
306199.308000334,0,0.00047507882,0.0060521364,-1.3828278e-05,-0.0009252944,0.0008002906,0.004153517
306199.328000334,20000000,3.3169985e-05,0.0054646432,-0.0006559491,0.00011186249,0.0010917995,0.0005140533
306199.348000334,0,-0.0008904338,0.0074527264,-0.00017517805,-0.0011759796,0.00077247503,-3.361021e-05
306199.368000334,0,0.0011495948,0.005885735,-0.0018731356,-0.00074903935,0.0023219497,-0.002036063
306199.388000334,0,0.0008119941,0.002769798,-0.001529932,0.0030706543,0.006506478,-0.008895431
306199.408000335,20000000,0.0035277903,0.0012880266,-0.002375722,0.007541272,0.014687492,-0.01667548
306199.428000335,0,0.0015076399,0.0017706901,-0.0002990961,0.010658328,0.015829071,-0.0236362
306199.448000335,20000000,-0.00022554398,0.0042708963,0.0029535294,0.014813944,0.013159709,-0.025251128
306199.468000335,0,-0.000869751,0.0036036968,0.0016508698,0.018631345,0.004476482,-0.02211297
306199.488000335,20000000,8.3208084e-05,0.0045155734,0.00087851286,0.019815017,-0.005295516,-0.017877925
306199.508000335,0,0.003911793,0.0031195134,-0.0021356344,0.02411607,0.002482533,-0.018437993
306199.528000335,20000000,0.0030394793,0.0043875724,-0.00053054094,0.027269892,0.010363674,-0.018602952
306199.548000335,0,0.0010204613,0.0073996484,0.00250417,0.027855031,0.009803525,-0.013648984
306199.568000335,20000000,0.0010339618,0.010152593,0.0034148097,0.026503941,0.0008737128,-0.003066293
306199.588000335,0,0.0018367767,0.010699615,0.0028249025,0.023807725,-0.0061760037,0.0048964424
306199.608000335,0,0.0017827749,0.009639487,0.0015823245,0.02638207,-0.012054287,0.015145322
306199.628000335,20000000,0.0017289221,0.008579299,0.00033944845,0.028956417,-0.01793257,0.025394201
306199.648000335,40000000,-0.002876699,0.008756071,0.0012851357,0.03219747,-0.024659699,0.039051063
306199.668000335,0,-0.0014667213,0.008441955,-0.0015861392,0.030237023,-0.020277314,0.045151524
306199.688000335,20000000,0.0012649894,0.005442232,-0.0039155483,0.027833572,-0.02059947,0.054808162
306199.708000335,0,0.0026198626,0.0017457455,-0.0048185587,0.030711943,-0.005752042,0.047921445
306199.728000335,0,0.0012703836,-0.00028645992,-0.0016354918,0.03135888,-0.0017757597,0.037779354
306199.748000335,20000000,-0.0012840331,-8.0406666e-05,-0.00013905764,0.033346966,-0.002429479,0.030286383
306199.768000335,0,-0.00056245923,-0.0004863441,0.00047677755,0.036402922,-0.0067206016,0.023717547
306199.788000335,0,-0.0007146895,-0.00014427304,0.00020390749,0.035507895,-0.008770071,0.017204646
306199.808000335,20000000,-0.00086665154,0.0001976639,-6.9499016e-05,0.034612868,-0.01081954,0.010691746
306199.828000335,40000000,-0.000613749,0.002415061,-0.0023390055,0.028066954,-0.006971307,0.007933645
306199.848000335,0,-0.0005964935,0.0012682527,-0.0011815429,0.025287878,-0.004530703,0.008094225
306199.868000335,20000000,0.00011649728,0.00076651573,-0.0007933378,0.021632966,-0.0040882705,0.0065902597
306199.888000335,0,0.0015273094,-0.00089894235,-0.0015279055,0.01895512,0.004596308,-0.0042879093
306199.908000335,0,0.0010919869,-0.0015945435,0.0020572543,0.020215224,0.009336025,-0.012043251
306199.928000335,0,-0.00017797947,0.00037246943,0.004204333,0.022392048,0.0005167248,-0.015146527
306199.948000335,0,0.00047817826,0.0010646582,-0.0002259016,0.021546965,-0.00206087,-0.019305216
306199.968000335,0,0.0032379031,0.0009160489,-0.0023998618,0.020366974,-0.002263199,-0.013604695
306199.988000335,0,0.002883494,0.0011874288,-0.0018604398,0.031122394,0.00930015,-0.014741158
306200.008000335,20000000,-0.0005737543,0.0029574335,0.0016151071,0.037456963,0.010119817,-0.002878352
306200.028000335,0,-0.0017892122,0.0046687424,0.0032615066,0.03290106,0.00028415304,0.0035563055
306200.048000335,0,-0.0007726252,0.00396885,0.0043805838,0.022630854,-0.009161804,0.004822
306200.068000335,0,5.6684017e-05,0.0018211156,0.001880765,0.014616728,-0.014810772,0.0031355661
306200.088000335,0,-0.0009796023,0.0015898496,0.00023680925,0.011261728,-0.01607625,0.01406955
306200.108000335,20000000,-0.0020156205,0.0013584644,-0.0014072657,0.0079067275,-0.01734173,0.025003534
306200.128000335,40000000,-0.0030514598,0.0011270046,-0.003051579,0.0045517273,-0.018607207,0.035937518
306200.168000335,0,0.0030332804,-0.0058281273,-0.0056397915,0.0028934511,0.005823301,0.023436736
306200.188000335,0,-0.00068962574,-0.006716937,-0.00063449144,0.014914475,0.011040667,0.012143384
306200.208000335,20000000,-0.0004825294,-0.006444171,0.0019646287,0.023186112,0.012081634,0.0042963903
306200.228000335,0,-0.001428932,-0.0016106814,0.0012989044,0.0287452,0.0030550864,0.0019693829
306200.248000335,0,-0.0001655221,-0.00018660724,0.00015056133,0.02815744,-0.006645335,0.0031525167
306200.268000335,20000000,0.00026974082,0.0005327165,-0.0005899668,0.025812216,-0.0031286809,0.0039550923
306200.288000335,0,0.00033417344,0.0019097626,0.0017771125,0.027129259,-0.0045854673,0.013165204
306200.328000335,0,-0.00078618526,0.0006185919,-0.00024592876,0.016846683,0.0025884048,0.030065812
306200.348000335,0,-0.0004645288,-0.0011583269,-2.0980835e-05,0.0191234,0.0009301298,0.03470631
306200.368000335,20000000,-0.0004016459,-0.004015565,0.00013822317,0.017496647,0.004112662,0.029435549
306200.388000335,0,-0.0021749139,-0.0035295188,-0.00015801191,0.015888328,-0.0030268636,0.030042276
306200.408000335,20000000,-0.0039479434,-0.003043592,-0.0004543066,0.014280009,-0.01016639,0.030649003
306200.428000335,40000000,-0.0007353425,-0.0034255832,-0.0032674074,0.006715296,0.0016267775,0.01695574
306200.448000335,60000000,0.0050136447,-0.008795112,-0.005633712,0.011008354,0.009029743,0.013971859
306200.468000336,0,-0.00028553605,-0.00788188,-0.0005568266,0.026193071,0.024045423,0.0018985597
306200.488000336,0,-0.00042966008,-0.0050331056,0.0049319863,0.031610303,0.020085495,-0.00026148162
306200.508000336,20000000,-0.0030163825,-0.003382519,0.0052865148,0.032400068,0.0026066303,-0.0020992057
306200.528000336,0,-0.0013091862,-0.0024925768,0.0027478337,0.028230738,-0.0035209972,-0.0010984001
306200.548000336,20000000,0.00091183186,-0.00030778348,0.00015866756,0.026363917,-0.0029699255,-0.0013997207
306200.567854542,0,-0.0008996663,0.0053990865,-0.002506009,0.019200258,-0.00059322256,0.008573389
306200.587854542,0,0.0009279549,0.0014855862,-0.0023827553,0.015507742,0.006505502,0.013295502
306200.607854542,0,0.00029432774,0.00041884184,-0.0008313656,0.0142123625,0.006905474,0.018719912
306200.627854542,0,0.0019094944,-0.002603829,-0.00070875883,0.0125206,0.010423525,0.015390441
306200.647854542,0,0.0012867153,-0.0039967448,0.0016295314,0.015831029,0.009296164,0.008810512
306200.667854542,20000000,-0.00030973554,-0.0035044253,0.003239274,0.015114072,0.006540908,0.0024569123
306200.687854542,0,0.000107735395,-0.0024135709,0.002187848,0.011713543,0.0042248257,-0.0004925635
306200.707854542,20000000,0.0005251765,-0.0013226718,0.0011363626,0.008313014,0.0019087433,-0.0034420397
306200.727854542,40000000,0.0009545982,-0.00011305511,0.0006275773,0.004328746,0.0015622638,-0.0023609004
306200.747854542,0,0.0006557107,-0.0005020499,0.0014483333,0.0045729126,0.0037061602,0.0027593034
306200.767854542,0,-0.0009917319,-0.0051528364,0.0051347613,0.013701199,-0.00056184526,0.006132104
306200.787854542,20000000,-0.003473401,-0.019471899,0.015712023,0.04575418,-0.015662927,0.00012328895
306200.807854542,0,-0.005502373,-0.034859613,0.025110126,0.109499246,-0.0636153,-0.043571744
306200.827854542,20000000,-0.0062312484,-0.039507076,0.02686143,0.17999664,-0.12444669,-0.11561242
306200.847854542,0,-0.010502845,-0.03378074,0.0270648,0.2483225,-0.19351774,-0.18019474
306200.867854542,0,-0.0069611073,-0.028253332,0.016624331,0.30375904,-0.24380556,-0.23220086
306200.887854542,20000000,-0.0033183396,-0.025948748,0.009446502,0.3554864,-0.2782014,-0.2782819
306200.907854542,0,-0.0022167563,-0.026036367,0.008097708,0.40661603,-0.2890912,-0.33793446
306200.927854542,20000000,-0.0011437535,-0.026095971,0.006689191,0.4577457,-0.29998097,-0.39758706
306200.947854542,40000000,-0.0036033094,-0.035083786,0.012532711,0.514399,-0.33030307,-0.46899265
306200.967854542,0,-0.008012414,-0.03888239,0.011612356,0.56513387,-0.36992535,-0.5639791
306200.987854542,0,-0.012509495,-0.046057463,0.012594759,0.62914425,-0.4221349,-0.68475425
306201.007854542,20000000,-0.017083615,-0.053160906,0.013466418,0.6931547,-0.47434446,-0.8055294
306201.027854542,40000000,-0.02173683,-0.060195506,0.014226913,0.7571651,-0.52655405,-0.9263046
306201.047854542,60000000,-0.028101802,-0.051321924,0.008624971,0.8135399,-0.57775223,-1.040941
306201.067854542,0,-0.024590433,-0.043771803,-0.0032726526,0.8529824,-0.60683763,-1.1410553
306201.087854542,0,-0.02627498,-0.037725,-0.00835669,0.8900274,-0.6335455,-1.2311751
306201.107854542,0,-0.027841061,-0.020349324,-0.01501441,0.9097856,-0.6414428,-1.2909064
306201.127854542,20000000,-0.027973175,0.0061160624,-0.025944471,0.8984587,-0.62995785,-1.303177
306201.147854542,0,-0.026362896,0.039521173,-0.039524734,0.84844095,-0.5941934,-1.2424883
306201.167854542,0,-0.016285092,0.072537735,-0.056927204,0.76585865,-0.5100225,-1.1101522
306201.187854542,0,0.0011459887,0.10415554,-0.0753538,0.648608,-0.37035063,-0.9137651
306201.207854542,0,0.019378722,0.12918562,-0.08859569,0.4934911,-0.18906978,-0.6764474
306201.227854542,0,0.02699861,0.14655036,-0.09126729,0.31575644,0.016349807,-0.41400865
306201.247854542,0,0.022762984,0.15200503,-0.08112872,0.13823195,0.20821527,-0.13004827
306201.267854542,20000000,0.016995281,0.14657566,-0.06848413,-0.025447905,0.3657689,0.16321433
306201.287854542,0,0.013080895,0.12823555,-0.054499805,-0.14094862,0.48189938,0.4176539
306201.307854542,20000000,0.009202629,0.10996045,-0.04057336,-0.25644934,0.5980299,0.67209345
306201.327854542,40000000,0.00302428,0.09009464,-0.024947286,-0.31077236,0.67630357,0.8942694
306201.347854542,0,-0.00037422776,0.070954174,-0.02410835,-0.33646703,0.73627454,1.0689267
306201.387854542,0,-0.005291432,0.036168993,-0.01815039,-0.3273746,0.7902227,1.2930593
306201.407854542,0,-0.009169012,0.018128037,-0.010033309,-0.28876743,0.79785484,1.320488
306201.427854543,20000000,-0.019787282,0.010093749,-0.004343331,-0.24573708,0.7691776,1.2932006
306201.447854543,0,-0.017093062,0.00517413,-0.0040352345,-0.21882166,0.738466,1.2748128
306201.467854543,0,-0.018185616,0.0026386678,-0.00030094385,-0.1962212,0.70906395,1.229663
306201.487854543,0,-0.014611423,0.0017170906,-0.0030764341,-0.20340905,0.71318257,1.182198
306201.507854543,0,-0.015657157,-0.0019472837,-0.00037384033,-0.21231595,0.709516,1.1442697
306201.527854543,20000000,-0.019949019,-0.0043137968,0.0022951365,-0.22276564,0.7031952,1.1080406
306201.547854543,0,-0.021593392,-0.004708171,0.0045818686,-0.24351075,0.69172233,1.0747186
306201.567854543,0,-0.019914478,-0.008859396,0.003738284,-0.26128304,0.6714204,1.0358349
306201.587854543,0,-0.020304829,-0.01474604,0.007538736,-0.27510336,0.65141016,0.9874971
306201.607854543,20000000,-0.0205518,-0.020550907,0.011326075,-0.28892368,0.6314,0.9391593
306201.627854543,40000000,-0.020949483,-0.02487573,0.014102221,-0.2973005,0.59431654,0.86752295
306201.647854543,0,-0.021824956,-0.029479742,0.017403722,-0.3053389,0.553525,0.8017554
306201.667854543,20000000,-0.023748934,-0.031500995,0.019246638,-0.2988383,0.5085089,0.7441039
306201.687854543,0,-0.018532604,-0.032714874,0.016660452,-0.28949675,0.47620595,0.6900924
306201.707854543,0,-0.018114835,-0.02494064,0.01144433,-0.2815346,0.44041908,0.64387536
306201.727854543,20000000,-0.013655186,-0.018887699,0.007370174,-0.2748747,0.42312574,0.6029629
306201.747854543,0,-0.009502798,-0.018232316,0.0041362047,-0.26824954,0.41393614,0.5732152
306201.767854543,20000000,-0.007405579,-0.019729465,0.0037337542,-0.26641288,0.3992753,0.52613974
306201.787854543,0,-0.008191824,-0.017259777,0.005601585,-0.2788046,0.37516353,0.46604162
306201.807854543,20000000,-0.011096865,-0.012597203,0.008470476,-0.30991018,0.33772382,0.39714676
306201.827854543,0,-0.0077838004,-0.015008718,0.002072215,-0.3665415,0.31045303,0.30824155
306201.847854543,0,-0.0035998523,-0.02385512,0.0038400292,-0.43399808,0.27426717,0.2044166
306201.867854543,0,-0.00059583783,-0.03577718,0.010457933,-0.4925271,0.25443098,0.060855612
306201.887854543,0,-0.0053759515,-0.032845348,0.014997244,-0.58019006,0.20520121,-0.0977402
306201.907854543,20000000,-0.010148138,-0.029945135,0.019416511,-0.66785306,0.15597144,-0.25633603
306201.927854543,0,-0.014896214,-0.033634633,0.026900887,-0.77411056,0.08783915,-0.4320683
306201.947854543,0,-0.018298179,-0.040793657,0.037577152,-0.8725906,0.0033205375,-0.5904642
306201.967854543,20000000,-0.022149473,-0.049211085,0.040572464,-0.93296504,-0.06780747,-0.7341328
306201.987854543,0,-0.022586703,-0.047129393,0.041823268,-0.96391404,-0.15479517,-0.834449
306202.007854543,0,-0.019497126,-0.04550597,0.038571954,-0.9720414,-0.21317483,-0.9237642
306202.027854543,20000000,-0.01813075,-0.033544898,0.025960267,-0.95177066,-0.24747202,-0.96456695
306202.047854543,0,-0.016428888,-0.018441781,0.015462518,-0.9089058,-0.26825592,-0.9478567
306202.067854543,0,-0.007801175,-0.01227352,0.0050101876,-0.8577163,-0.26240757,-0.90997666
306202.087854543,0,-0.0041691065,-0.014887705,0.004219532,-0.7915835,-0.2503318,-0.8882762
306202.107854543,0,-0.004341483,-0.020100355,0.010854185,-0.72626317,-0.24584018,-0.9066854
306202.127854543,20000000,-0.004929304,-0.01796396,0.013329625,-0.6705646,-0.2653732,-0.9327396
306202.147854543,0,-0.011026382,-0.0033187643,0.0070308447,-0.6455341,-0.27942196,-0.97625124
306202.167854543,20000000,-0.006671965,0.0038567185,0.006204784,-0.625237,-0.29316863,-0.9596992
306202.187854543,0,-0.006878108,-0.004961565,0.011283338,-0.55555505,-0.29668275,-0.97654957
306202.207854543,20000000,-0.006682873,-0.013752788,0.016132653,-0.48587313,-0.30019686,-0.9933999
306202.227854543,40000000,-0.006088227,-0.022506535,0.02075082,-0.41619122,-0.30371094,-1.0102502
306202.247854543,0,-0.014531046,-0.018760592,0.016344845,-0.3098823,-0.33016685,-1.0316528
306202.267854543,0,-0.013818085,-0.013622843,0.0039850473,-0.17191413,-0.33411387,-1.0309573
306202.287854543,0,-0.01585272,-0.0025528558,-0.0050474405,-0.021209747,-0.34194684,-1.0085341
306202.307854543,20000000,-0.007006943,0.00655807,-0.018690884,0.10427341,-0.3319748,-0.995577
306202.327854543,0,-0.0028452277,0.011133922,-0.020120919,0.21114068,-0.32318607,-0.9751722
306202.347854543,0,0.0029984415,0.0027129017,-0.01860416,0.31470758,-0.30534536,-0.9875667
306202.367854543,0,-1.3560057e-05,0.0030619428,-0.015059471,0.41071576,-0.2739064,-1.0127083
306202.387854543,0,-0.0055238605,0.007175425,-0.011652708,0.4722029,-0.2912608,-1.022986
306202.407854543,20000000,-0.011016905,0.011442006,-0.00828135,0.53369004,-0.3086152,-1.0332638
306202.427854543,40000000,-0.016496062,0.015861599,-0.0049468875,0.5951772,-0.3259696,-1.0435416
306202.447854543,0,-0.017334849,0.025679547,-0.00770092,0.6132215,-0.33750454,-1.0333354
306202.467854543,20000000,-0.010516733,0.020145757,-0.0067393184,0.6350106,-0.3420761,-1.0133702
306202.487854543,0,-0.008869171,0.025030553,-0.0121901035,0.6253769,-0.3150033,-0.96702147
306202.507854544,20000000,-0.0072734654,0.0300606,-0.017722487,0.61574316,-0.28793052,-0.9206728
306202.527854543,40000000,-0.005732596,0.035233855,-0.023337781,0.6061095,-0.26085773,-0.8743241
306202.547854543,60000000,-0.00424999,0.04054818,-0.029037654,0.59647584,-0.23378496,-0.82797533
306202.567854544,0,-0.00071051717,0.047133636,-0.032649398,0.5553757,-0.17387247,-0.7648713
306202.587854544,0,-0.0021308064,0.055651926,-0.032892466,0.5030358,-0.114412814,-0.6429899
306202.607854544,20000000,-0.0036027431,0.0642066,-0.033182085,0.45069587,-0.054953165,-0.52110845
306202.627854544,0,0.0057145953,0.058205493,-0.037611544,0.40743223,0.010901205,-0.4132827
306202.647854544,20000000,0.0029515922,0.055536583,-0.03048265,0.35907325,0.08352322,-0.3246674
306202.667854544,0,-0.0031537414,0.051938843,-0.02414763,0.31844223,0.13578132,-0.21829729
306202.687854544,0,-0.0017279387,0.04759163,-0.021094441,0.3088214,0.16388172,-0.10808685
306202.707854544,0,0.0005464554,0.047791943,-0.015396416,0.29597884,0.18635303,-0.01108294
306202.727854544,0,0.0039390326,0.042722605,-0.015444398,0.29058838,0.2030066,0.096424915
306202.747854544,0,0.0068062544,0.04347913,-0.01705426,0.29855397,0.24060549,0.18367296
306202.767854544,0,0.0037800372,0.058901574,-0.013856828,0.275991,0.30265337,0.29338023
306202.787854544,20000000,-0.0058248937,0.063045055,-0.009975016,0.23096818,0.2840776,0.39652067
306202.807854544,0,-0.0017310977,0.06095912,-0.013150275,0.17850728,0.34810793,0.53290915
306202.827854544,20000000,0.0024497807,0.058923014,-0.01637566,0.12604639,0.41213825,0.6692976
306202.847854544,0,0.005769193,0.041613925,-0.0036982894,0.069098964,0.42460248,0.7553798
306202.867854544,20000000,0.004475057,0.02305023,0.0055936575,0.048097305,0.46105433,0.8095026
306202.887854544,0,-0.0029548109,0.020008408,0.008268952,0.025362762,0.4294101,0.853116
306202.907854544,20000000,-0.0013989806,0.01505778,0.012975872,-0.0015094932,0.4160069,0.8629929
306202.927854544,0,-0.005237013,-0.0076648965,0.015659988,0.015213849,0.4014585,0.86922646
306202.947747833,0,-0.003907499,0.0063848062,0.010972486,-0.0012484769,0.37055877,0.8444675
306202.967747833,0,-0.0061011314,-0.0039501637,0.012579262,-0.03954587,0.3371485,0.8000504
306202.987747833,0,-0.004878819,-0.01059594,0.012388527,-0.072705045,0.30534872,0.7503216
306203.007747833,0,-0.0029202998,-0.019515283,0.012066662,-0.10858795,0.2776157,0.68557966
306203.027747833,20000000,-0.0024502277,-0.0207709,0.011671424,-0.14802743,0.25783873,0.6191594
306203.047747833,0,-0.0036484003,-0.017173521,0.012480319,-0.18375006,0.23119812,0.567635
306203.067747833,20000000,-0.0030190349,-0.018063381,0.013193846,-0.2201959,0.21026775,0.5247763
306203.087747833,0,-0.0021868646,-0.016831085,0.012730002,-0.24941224,0.1904734,0.49172777
306203.107747833,20000000,-0.0013454556,-0.015573695,0.01226145,-0.27862856,0.17067903,0.45867926
306203.127747833,40000000,-0.0025864244,-0.012512855,0.010565817,-0.30741337,0.15616748,0.42977437
306203.147747834,0,-0.008661658,-0.0065409616,0.009052932,-0.33843756,0.13814738,0.4181973
306203.167747834,0,-0.004708469,-0.003288202,0.0075234175,-0.3755161,0.12239523,0.4132837
306203.187747834,20000000,-0.0012215376,-0.0053517073,0.0064849257,-0.40807596,0.109112896,0.40302867
306203.207747834,0,-0.0017928481,-0.0059728324,0.006750524,-0.4389199,0.09715583,0.39311633
306203.227747834,20000000,-0.003693372,-0.008051865,0.009701192,-0.4652511,0.08382683,0.37732038
306203.247747834,0,-0.008560568,-0.010039069,0.012775004,-0.4830845,0.049010515,0.35925826
306203.267747834,0,-0.010022163,-0.009663582,0.012011707,-0.50059545,0.02094798,0.35528028
306203.287747834,20000000,-0.0033482611,-0.013506867,0.006939769,-0.51348907,-0.0030725785,0.3532512
306203.307747834,0,-0.00068211555,-0.016326934,0.004969597,-0.52213407,-0.0029657844,0.33692378
306203.327747834,20000000,-0.0004517138,-0.019278005,0.006662667,-0.51908696,-0.010799141,0.31945625
306203.347747834,0,-0.00023281574,-0.020664632,0.0066900253,-0.5038503,-0.01499347,0.2960136
306203.367747834,0,-0.00094261765,-0.020221345,0.0034457445,-0.4805643,-0.017541422,0.27559033
306203.387747834,0,-0.0017480254,-0.01962205,0.002652049,-0.4428305,-0.023910705,0.2561802
306203.407747834,20000000,-0.0025782585,-0.01903309,0.0018200874,-0.40509668,-0.03027999,0.23677006
306203.427747834,0,-0.0021061301,-0.014582649,-0.0021452904,-0.35507008,-0.03768768,0.22249034
306203.447747834,0,-0.0030523539,-0.00977613,-0.001879096,-0.30272442,-0.042876247,0.2208607
306203.467747834,20000000,-0.0025212765,-0.0038705505,-0.0033816695,-0.25345886,-0.045699462,0.2241795
306203.487747834,0,0.0011104941,0.0025542304,-0.006094992,-0.20984413,-0.04683468,0.2361408
306203.507747834,0,0.00048282743,0.009398393,-0.0038312078,-0.17604822,-0.043172996,0.26015404
306203.527747834,20000000,-0.00052157044,0.013851058,-0.002640009,-0.146204,-0.05254838,0.29985383
306203.547747834,0,-0.00055089593,0.017725877,-0.004177451,-0.12453677,-0.044485405,0.3450273
306203.567747834,0,0.0001949668,0.018287633,-0.0078982115,-0.110603414,-0.032540374,0.3888624
306203.587747834,0,0.003277272,0.016758386,-0.011401236,-0.1024521,-0.0071041416,0.42709187
306203.607747834,0,0.0040634573,0.014583133,-0.012878478,-0.10094958,0.02719065,0.4506991
306203.627747834,20000000,0.0019242764,0.011075117,-0.01128298,-0.10401885,0.05557193,0.46669063
306203.647747834,0,-0.0012446642,0.010376785,-0.010183394,-0.11051656,0.08454491,0.4799211
306203.667747834,0,-0.0014115274,0.009276647,-0.010757625,-0.12189692,0.111463696,0.49324217
306203.687747834,0,-0.0019808412,0.006696373,-0.010085285,-0.13787647,0.13637318,0.49848467
306203.707747834,20000000,-0.002526611,0.004135251,-0.009410679,-0.15385601,0.16128266,0.50372714
306203.727747834,40000000,-0.0034665763,0.001149863,-0.008729994,-0.17528306,0.19209188,0.5092394
306203.747747834,0,-0.007804543,0.00039143115,-0.006548822,-0.18316047,0.21916597,0.50658923
306203.767747834,0,-0.011554927,0.001208432,-0.0064736605,-0.20791082,0.22827244,0.5176035
306203.787747834,0,-0.00584659,-0.007980876,-0.0074295998,-0.22328158,0.23641722,0.51145595
306203.807747834,0,-0.0034194589,-0.0188018,-0.00053983927,-0.21880217,0.24776512,0.47847047
306203.827747834,0,-0.0055831373,-0.033655994,0.010822892,-0.19354382,0.23179492,0.42367372
306203.847747834,0,-0.0052977502,-0.046068177,0.018303871,-0.15393794,0.19409133,0.3323686
306203.867747834,0,-0.005194366,-0.056252047,0.025790751,-0.10093183,0.1299427,0.21421793
306203.887747834,20000000,-0.007410884,-0.0739662,0.03773892,-0.022552371,0.049832396,0.07074356
306203.907747834,0,-0.0055327415,-0.08977093,0.043091953,0.08295595,-0.045810834,-0.11094496
306203.927747834,0,-0.009640485,-0.10696833,0.051115632,0.2138446,-0.17446567,-0.34059745
306203.947747834,0,-0.019867271,-0.11225622,0.05268395,0.35306543,-0.30580544,-0.578125
306203.967747834,0,-0.023104042,-0.10395567,0.04266584,0.49082965,-0.41406965,-0.7840828
306203.987747834,20000000,-0.026326597,-0.095476806,0.032560408,0.62859386,-0.52233386,-0.99004054
306204.007747834,40000000,-0.029539019,-0.086820476,0.022365332,0.7663581,-0.630598,-1.1959983
306204.027747834,60000000,-0.03506431,-0.07188288,0.012034893,0.86732537,-0.70709234,-1.3629125
306204.047747834,0,-0.042684734,-0.053329766,0.0078004003,0.9382591,-0.7809518,-1.4896879
306204.067747834,0,-0.042043716,-0.033609927,-0.0030289888,0.9725573,-0.831803,-1.5834634
306204.087747834,0,-0.03620544,-0.018589877,-0.011387587,0.9888592,-0.8575047,-1.6340281
306204.107747834,20000000,-0.03257978,-0.0019066557,-0.021538496,0.9798112,-0.85458326,-1.6568333
306204.127747834,0,-0.029601604,0.00897193,-0.024947643,0.9649446,-0.82531554,-1.646189
306204.147747834,20000000,-0.028127223,0.02224125,-0.026492476,0.9408903,-0.79847836,-1.6040576
306204.167747834,0,-0.023209572,0.03253103,-0.028987885,0.89400256,-0.75898546,-1.5333216
306204.187747834,20000000,-0.01678431,0.033284545,-0.029885948,0.8511345,-0.71914524,-1.4702126
306204.207747835,0,-0.010738492,0.04268054,-0.031462908,0.79616547,-0.6687439,-1.4025979
306204.227747835,20000000,-0.0064278543,0.051895052,-0.033840895,0.7248018,-0.61280745,-1.3066407
306204.247747835,0,0.0049140453,0.047424138,-0.035598636,0.66423917,-0.5311848,-1.2149224
306204.267747835,20000000,0.010813177,0.037648343,-0.036824822,0.62111616,-0.4420784,-1.1398985
306204.287747835,0,0.005377561,0.0416388,-0.035412252,0.5844553,-0.37493998,-1.0691757
306204.307747835,20000000,-0.00012230873,0.045716904,-0.034064114,0.54779446,-0.30780154,-0.998453
306204.327747835,40000000,-0.003993243,0.05800832,-0.033572197,0.49647835,-0.24764132,-0.9043206
306204.347747835,0,-2.1517277e-05,0.06821461,-0.032977045,0.43293783,-0.18802418,-0.77154124
306204.367747835,20000000,0.0044664443,0.07631516,-0.033555865,0.36319458,-0.120373584,-0.63121206
306204.387747835,0,0.0063663423,0.08314371,-0.037388027,0.2840055,-0.046803184,-0.48095924
306204.407747835,0,0.006238401,0.09320472,-0.03642583,0.19290322,0.024114095,-0.31788212
306204.427747835,0,0.0053903162,0.099968344,-0.03699732,0.08744546,0.10646218,-0.14327507
306204.447747835,0,0.002706349,0.10315145,-0.038110435,-0.024214342,0.17555723,0.05147399
306204.467747835,20000000,0.00601089,0.103734076,-0.03984642,-0.13133667,0.2562099,0.2539669
306204.487747835,0,0.004410684,0.099280685,-0.039403558,-0.24335557,0.3452603,0.45004177
306204.507747835,20000000,0.009150237,0.08713958,-0.04056859,-0.35012168,0.43654418,0.6244488
306204.527747835,0,0.008802414,0.07360264,-0.03846109,-0.43990263,0.52760005,0.78304183
306204.547747835,0,0.0030202866,0.06606671,-0.035947084,-0.5131942,0.6145258,0.94181705
306204.567747835,0,-0.004731238,0.056896724,-0.031136334,-0.5663876,0.6850429,1.0984049
306204.587747835,0,-0.004488647,0.040120386,-0.025457025,-0.5997256,0.7400244,1.1913605
306204.607747835,20000000,-0.0042174757,0.023641728,-0.019946039,-0.6330636,0.7950058,1.284316
306204.627747835,40000000,-0.009654045,0.013771191,-0.012691498,-0.65522957,0.8157793,1.3213764
306204.647747835,0,-0.018961191,-0.0017115027,-0.003981054,-0.65529984,0.8153616,1.3295392
306204.667747835,20000000,-0.024737954,-0.013026461,0.0043562055,-0.64989185,0.79281074,1.3134046
306204.687747835,0,-0.022262216,-0.031698808,0.010838211,-0.6238646,0.7612889,1.2573586
306204.707747835,0,-0.023446143,-0.04489845,0.018534958,-0.57237256,0.71385753,1.1788071
306204.727747835,20000000,-0.02514264,-0.04590082,0.022030294,-0.5088185,0.65616137,1.101451
306204.747747835,0,-0.020320594,-0.04545237,0.023472905,-0.44583458,0.5926786,1.0149856
306204.767747835,20000000,-0.019258171,-0.046005487,0.026652455,-0.37687096,0.5224657,0.91994625
306204.787747835,0,-0.019853681,-0.03267546,0.022999585,-0.31620523,0.45408085,0.84463507
306204.807747835,0,-0.014244765,-0.024953172,0.019481182,-0.26985124,0.39025432,0.8055589
306204.827747835,0,-0.002062291,-0.030979604,0.015129685,-0.20865908,0.35904846,0.76363814
306204.847747835,0,-0.0050733984,-0.019917622,0.011258066,-0.14327517,0.3476574,0.7395359
306204.867747835,20000000,-0.010853082,-0.0022123158,0.010796666,-0.09091751,0.3416593,0.7824299
306204.887747835,0,-0.0075618327,-0.004789397,0.010656297,-0.047022402,0.32398716,0.79028857
306204.907747835,20000000,-0.0041224957,-0.0073271245,0.010502815,-0.0031272955,0.306315,0.79814726
306204.927747835,40000000,-0.00053453445,-0.009827808,0.010337174,0.040767815,0.28864285,0.80600595
306204.947747835,0,-0.014942437,-0.01344417,0.02218026,0.14147517,0.2520748,0.82332605
306204.967747835,20000000,-0.003980398,-0.0067114383,0.010646164,0.19830596,0.2161813,0.79830927
306204.987747835,0,0.00541842,-0.018829763,0.012319088,0.21981436,0.16844213,0.72301495
306205.007747835,0,-0.0056942105,-0.03626558,0.025741339,0.25322965,0.12412299,0.6312165
306205.027747835,0,-0.008865237,-0.034955993,0.023023546,0.29861706,0.067563295,0.5384518
306205.047747835,20000000,-0.0047281384,-0.03367862,0.020841897,0.31578052,0.015566967,0.43190312
306205.067747835,0,-0.006267369,-0.04548821,0.025376678,0.33240885,-0.023539376,0.33382553
306205.087747835,20000000,-0.010865927,-0.036400527,0.021393776,0.36536676,-0.073523864,0.25125137
306205.107747835,0,-0.014020205,-0.028656006,0.017054856,0.36911267,-0.11162232,0.20608342
306205.127747835,0,-0.008742183,-0.017013848,0.0059491396,0.38528895,-0.1252484,0.17953458
306205.147747835,20000000,0.0001193285,-0.0033109188,-0.007945359,0.3721138,-0.11729729,0.1527307
306205.167747835,0,0.0034644306,-0.003386408,-0.00966078,0.33060816,-0.09767431,0.11475692
306205.187747835,20000000,0.0020731986,-0.0070386827,-0.0018151999,0.28587607,-0.09208749,0.06726085
306205.207747835,0,-0.0027256608,-0.011991143,0.004781902,0.27018145,-0.10994813,0.02621951
306205.227747835,20000000,-0.0075242817,-0.01694724,0.011353314,0.25448683,-0.12780876,-0.014821831
306205.247747835,40000000,-0.0036269426,-0.011337489,0.00506413,0.23435766,-0.14877893,-0.060466535
306205.267747835,0,-0.0015529096,-0.0039773285,0.0014153719,0.1893316,-0.16590093,-0.09785918
306205.287747836,0,-0.0008060336,0.0009588599,0.00053328276,0.13799264,-0.17380102,-0.13222365
306205.307724417,0,-0.0016783259,0.002021813,-0.004555441,0.061813343,-0.17182343,-0.16099983
306205.327724417,0,0.0012589097,-0.0026350021,-0.0031635761,0.001202479,-0.16038974,-0.17793058
306205.347724417,0,0.0014253855,-0.0023091733,-0.0020925999,-0.05470179,-0.13652249,-0.19192563
306205.367724417,0,0.0005053878,0.0018919706,-0.0033388138,-0.110645965,-0.11600765,-0.20291977
306205.387724417,0,0.00030118227,0.005743742,-0.0050733685,-0.17112803,-0.09194379,-0.2069436
306205.407724417,20000000,-0.00047275424,0.0056221783,-0.0059254766,-0.22362149,-0.06356412,-0.20606816
306205.427724417,0,-0.0013231933,0.00572145,-0.006418884,-0.27024305,-0.042691767,-0.20776302
306205.447724417,0,-0.0014330149,0.005292177,-0.006221652,-0.3209737,-0.03295155,-0.22227985
306205.467724417,20000000,-0.0008031428,0.0003145635,-0.0035947561,-0.37802958,-0.029466689,-0.25750187
306205.487724417,0,-0.003265053,-0.007141769,0.0032110214,-0.42786324,-0.04779025,-0.2976154
306205.507724417,20000000,-0.0056652427,-0.01462689,0.0099333525,-0.4776969,-0.066113815,-0.33772898
306205.527724417,40000000,-0.007059902,-0.01965344,0.01171577,-0.49886674,-0.075730406,-0.3741285
306205.547724417,0,-0.009037495,-0.020448998,0.0104346275,-0.49722582,-0.08497947,-0.39162704
306205.567724417,0,-0.009478927,-0.018283352,0.008659244,-0.47677568,-0.09207347,-0.3841177
306205.587724417,20000000,-0.008427918,-0.01029937,0.0043029785,-0.4509821,-0.09694799,-0.36085373
306205.607724417,0,-0.002919376,-0.005908102,-0.0029761791,-0.42320606,-0.087380975,-0.34069964
306205.627724417,20000000,-0.00018489361,-0.001951918,-0.0068350434,-0.39002487,-0.07013619,-0.31304687
306205.647724417,0,0.00087568164,0.0027066916,-0.008434117,-0.35134727,-0.0502692,-0.28136638
306205.667724417,0,0.00080266595,0.0070221275,-0.008238673,-0.3175553,-0.036924277,-0.2523449
306205.687724417,20000000,0.0008661151,0.008580536,-0.0062147975,-0.2877749,-0.03077801,-0.22918358
306205.707724417,0,0.0010839701,0.010423154,-0.0041712523,-0.2655065,-0.030848641,-0.20793107
306205.727724417,20000000,-0.0009446144,0.009175733,-0.001545608,-0.24776584,-0.0318244,-0.19088943
306205.747724417,0,-0.0020412803,0.008267462,1.8954277e-05,-0.22819322,-0.03531997,-0.17584264
306205.767724417,0,-0.0018720031,0.009651676,0.00034815073,-0.2156737,-0.03893608,-0.16761325
306205.787724417,0,-0.0024488866,0.009212509,0.0024118423,-0.2268907,-0.049629275,-0.17605668
306205.807724417,20000000,-0.0030066073,0.008769542,0.0044522285,-0.23810771,-0.06032247,-0.1845001
306205.827724417,40000000,-0.0036289394,0.0070644617,0.0045918226,-0.2614805,-0.08014757,-0.20601965
306205.847724417,0,0.0011264086,-0.0015232414,0.0046365857,-0.28415477,-0.09376322,-0.23530513
306205.867724417,0,0.00018841028,-0.007581651,0.007478893,-0.28071478,-0.09592204,-0.26370883
306205.887724417,0,-0.0017337203,-0.002666317,0.0045228004,-0.26371372,-0.09459041,-0.26505288
306205.907724417,0,-0.0024506748,0.0069211125,-0.00031369925,-0.24544194,-0.090179145,-0.2521497
306205.927724417,20000000,-0.001205653,0.014295466,-0.005133748,-0.2290063,-0.080286846,-0.23201656
306205.947724417,0,-0.0003529787,0.018601634,-0.0068009496,-0.21369037,-0.072120465,-0.20779617
306205.967724417,0,0.0011081398,0.015842974,-0.008736074,-0.19424096,-0.058641937,-0.1757338
306205.987724417,20000000,0.0022599995,0.01450105,-0.009463549,-0.1566628,-0.04072832,-0.13221154
306206.007724417,0,-0.0006387234,0.018478416,-0.009697497,-0.10876275,-0.026082657,-0.08071196
306206.027724417,20000000,-0.00035429,0.02178201,-0.011708796,-0.063989,-0.0034507718,-0.035700224
306206.047724417,0,0.0024490058,0.0183767,-0.012304783,-0.016258463,0.0141969025,0.015940752
306206.067724417,20000000,0.0011940897,0.010850981,-0.0067928433,0.057060808,0.029441934,0.06494645
306206.087724417,0,0.0008125007,0.0098904595,-0.0057837367,0.14205337,0.033525236,0.109838456
306206.107724417,20000000,0.00044372678,0.008928426,-0.0047917366,0.22704594,0.037608538,0.15473047
306206.127724417,40000000,8.767843e-05,0.007964835,-0.0038169622,0.3120385,0.041691843,0.19962247
306206.147724417,0,0.00067564845,0.012634963,-0.0052558184,0.37119442,0.04369635,0.23325676
306206.167724417,20000000,0.000119030476,0.010747634,-0.0010649562,0.4127076,0.047306333,0.25772983
306206.187724417,0,-0.00075647235,0.011564091,-2.169609e-05,0.44370744,0.044706736,0.27065313
306206.207724418,0,0.00014254451,0.014155798,0.0013245344,0.45097762,0.04439206,0.28266445
306206.227724418,0,-0.000684917,0.011042491,0.0044664145,0.46383,0.0400181,0.28819492
306206.247724418,0,-0.00029414892,0.012785077,0.0034584403,0.46582347,0.031177716,0.28587222
306206.267724418,0,0.0019380748,0.014575958,0.00071310997,0.43794078,0.020101786,0.2696092
306206.287724418,0,0.003322363,0.01369597,0.0011529326,0.3978918,0.01850342,0.23420465
306206.307724418,20000000,0.0023144186,0.014337033,0.000587523,0.34130484,0.013437489,0.19360256
306206.327724418,0,-0.00030311942,0.013470247,0.0036352873,0.27067807,-0.00048641954,0.1511127
306206.347724418,20000000,0.0009306967,0.0077789426,0.0008891225,0.18973356,-0.0076295394,0.095028
306206.367724418,0,0.0036812127,0.0026055723,-5.38826e-05,0.111756645,-0.019215254,0.043391198
306206.387724418,0,0.0007969737,-0.00080896914,0.0037187338,0.064945616,-0.016411914,0.0096112825
306206.407724418,20000000,-0.002087444,-0.0042235106,0.0074909925,0.01813459,-0.013608572,-0.02416863
306206.427724418,40000000,-0.0022016168,-0.004304126,0.0057142377,-0.011495454,-0.013939559,-0.041697428
306206.447724418,0,-0.0011824071,-0.0022967905,0.002861023,-0.025531223,-0.015697453,-0.045560468
306206.467724418,20000000,-0.00040331483,-0.000782907,0.00097543,-0.034560867,-0.01491959,-0.043919362
306206.487724418,0,-0.0011974573,0.0010538995,0.0010274649,-0.03497847,-0.014592838,-0.03460485
306206.507724418,0,4.2021275e-06,0.003128782,-0.0006659627,-0.03516907,-0.015444508,-0.02487972
306206.527724418,0,0.00043442845,0.0018645823,-0.0011320114,-0.031664632,-0.009116659,-0.021399464
306206.547724418,0,0.00034698844,5.2288175e-05,-0.0026664734,-0.02403332,-0.00721704,-0.017356385
306206.567724418,20000000,-0.0009084642,0.00085137784,-0.0015319586,-0.018628864,-0.018425584,-0.006463305
306206.587724418,0,0.0017372966,-0.0033777803,-0.0028544664,-0.011255806,-0.008055576,-0.008486444
306206.607724418,0,2.5868416e-05,-0.0023864955,-0.00043302774,-0.0027073547,-0.0047972547,-0.012016235
306206.627724418,20000000,-0.0012903512,-0.0018153936,0.0011657476,0.003096424,-0.0047949553,-0.016462851
306206.647724418,0,-0.002890557,-0.00073607266,0.001922965,0.006448266,-0.012372747,-0.016269222
306206.667724418,20000000,-0.0019637048,-0.00087594986,0.0014232397,0.005706071,-0.019184325,-0.02308532
306206.687724418,0,-0.0022436976,-0.00021882355,0.0016412735,0.0049980986,-0.024178425,-0.028053373
306206.707724418,20000000,-0.0015313327,-0.0002874881,0.0008509755,0.009936572,-0.021203864,-0.02500244
306206.727724418,0,-0.001159966,0.000674054,0.0015913844,0.022159658,-0.019786242,-0.016500633
306206.747724418,0,-0.0010945797,0.002012387,-0.00025874376,0.03195027,-0.02146619,-0.01097073
306206.767724418,20000000,0.0010237098,0.0037936717,-0.001542151,0.04111182,-0.020921463,-0.009475754
306206.787724418,0,0.00040379167,0.0031145513,-0.0015227795,0.04713645,-0.018754186,-0.007611776
306206.807724418,0,1.0102987e-05,0.003529027,0.00097066164,0.056895006,-0.022987643,-0.0015292959
306206.827724418,0,0.00033715367,0.002961576,0.00226295,0.06553464,-0.026131785,-0.002965387
306206.847724418,0,-0.0016105175,0.003230825,0.0018405318,0.062329676,-0.039995603,-0.007988266
306206.867724418,20000000,-0.003558308,0.0035004914,0.0014164448,0.059124716,-0.05385942,-0.0130111445
306206.887724418,0,-1.4692545e-05,0.002224654,-0.00219059,0.04989589,-0.06335093,-0.0132102575
306206.907724418,0,0.003092587,7.195771e-05,-0.005833924,0.04378012,-0.04365247,-0.030739339
306206.927724418,0,-0.0026275218,0.0016956627,-0.0014868975,0.043009464,-0.039007165,-0.03073406
306206.947724418,20000000,-0.007464379,0.002127871,0.0011767149,0.043202087,-0.042437855,-0.032579534
306206.967724418,0,-0.0066601336,-0.0017733872,0.0012413859,0.041822217,-0.050606236,-0.029653152
306206.987724418,0,-0.010893226,-0.009087354,0.005218208,0.048327956,-0.06040857,-0.037248015
306207.007724418,20000000,-0.014629692,-0.013238624,0.008003533,0.059666723,-0.08968342,-0.054612644
306207.027724418,0,-0.01582399,-0.016326025,0.006492436,0.07232813,-0.12350772,-0.08514255
306207.047724418,0,-0.012904435,-0.020349264,0.00020706654,0.08514919,-0.13765274,-0.13512045
306207.067724418,20000000,-0.02026838,-0.017974317,0.0035737753,0.10499789,-0.16597363,-0.16964668
306207.087724418,0,-0.01925245,-0.017742217,-0.0014584064,0.12011283,-0.17897843,-0.21611933
306207.107724418,20000000,-0.014192581,-0.022234678,-0.0054433346,0.13824517,-0.19128747,-0.25424317
306207.127724418,0,-0.013404757,-0.02482301,-0.0033515692,0.1557008,-0.20535664,-0.30660436
306207.147724418,0,-0.008154392,-0.021257102,-0.0066177845,0.16548799,-0.22186935,-0.3826928
306207.167724418,20000000,-0.0028969646,-0.017667547,-0.009895265,0.17527518,-0.23838206,-0.4587813
306207.187724418,0,0.0033136904,-0.0025541782,-0.0028972626,0.15509203,-0.23403998,-0.4809369
306207.207724418,0,-0.0017325282,0.013033122,0.0037216544,0.15433782,-0.24385542,-0.5117831
306207.227724418,0,0.008330971,-0.0025916547,0.007434666,0.17294067,-0.21765234,-0.51085305
306207.247724418,20000000,0.0047092736,0.022997484,0.006418407,0.14040928,-0.20644295,-0.47405
306207.267724418,0,0.011217982,0.028391078,0.0037145615,0.09333417,-0.21422105,-0.42787206
306207.287724419,0,0.01742372,0.023114532,0.0026141405,0.05556931,-0.18405533,-0.39960012
306207.307724419,20000000,0.017481595,0.016353264,0.0062371492,0.06082698,-0.18202816,-0.3684005
306207.327724419,0,0.022355527,0.025165826,-0.0027062297,0.0652579,-0.16661024,-0.32417732
306207.347724419,0,0.007192701,0.0099642575,0.014050901,0.10447201,-0.16351393,-0.2647206
306207.367724419,0,0.010330796,0.027509615,0.003053546,0.1252374,-0.18509738,-0.2203947
306207.387724419,0,0.0130055845,0.03079535,0.0014021397,0.11366229,-0.19209516,-0.17356965
306207.407724419,20000000,0.0077513754,0.023915768,0.0032225251,0.12818615,-0.19956973,-0.09921933
306207.427724419,0,0.004416704,0.013619915,0.0009507537,0.17746112,-0.2032865,-0.013241917
306207.447724419,0,0.0012350976,0.014424607,0.0006505847,0.21964492,-0.20840989,0.04172146
306207.467724419,20000000,-0.0019415319,0.015230104,0.0003233552,0.26182872,-0.2135333,0.096684836
306207.487724419,0,-0.0022847056,0.011970848,-0.00019276142,0.29410076,-0.19138546,0.13563691
306207.507724419,0,-0.0042277575,0.017770946,-0.011218965,0.26771778,-0.1975582,0.15676093
306207.527724419,0,-0.008316249,0.009284824,-0.0062894225,0.25973532,-0.17826423,0.15244491
306207.547724419,20000000,-0.0025147498,0.010838613,-0.014376283,0.23909083,-0.16068694,0.1522169
306207.567724419,0,-0.0028648674,0.0063122213,-0.014052093,0.21213624,-0.12754682,0.14531465
306207.587724419,20000000,0.00033730268,0.017575592,-0.022156656,0.15810475,-0.098518856,0.12077204
306207.607724419,0,0.0034700334,0.018464819,-0.02746445,0.11285333,-0.05761535,0.09494421
306207.627724419,0,0.0015289485,0.00853391,-0.017249584,0.0772569,-0.025001429,0.09271814
306207.667724419,0,0.013858706,-0.0038229376,-0.009657443,0.041829873,0.05268441,0.043307535
306207.687724419,20000000,0.0139481425,-0.00900884,-0.0016208291,0.06375143,0.0660291,0.012154903
306207.707596417,0,0.014007531,0.013526401,-0.00062278536,0.034422196,0.12821756,0.049248468
306207.727596417,0,0.0041216314,0.0006683916,0.0013253689,0.058708403,0.1082826,0.11464049
306207.747596417,20000000,-0.005655557,-0.0019036084,0.00419271,0.062410694,0.07531356,0.1761039
306207.767596417,0,-0.005453527,-0.007075876,-0.0005316138,0.04394752,0.07612929,0.19121414
306207.787596417,0,-0.0070041716,-0.0128003955,0.0006136298,0.033199742,0.07634652,0.18914121
306207.807596417,20000000,-0.00670135,-0.015591159,-0.0018904209,0.029772226,0.075858995,0.16977996
306207.827596417,0,-0.0010825992,-0.011274055,-0.008324623,0.023835054,0.07630705,0.14881086
306207.847596417,0,0.0027979314,-0.009932131,-0.01015836,0.029122584,0.09942837,0.12278888
306207.867596417,20000000,0.001745671,-0.004144758,-0.009208858,0.04518546,0.11066622,0.11370089
306207.887596417,0,-0.0025918782,0.0022036433,-0.008055508,0.050849818,0.11600804,0.12141194
306207.907596417,20000000,-0.0019295812,0.005861163,-0.0063772798,0.049284313,0.11083166,0.13510978
306207.927596417,0,0.0051354766,0.006897807,-0.011132956,0.028105792,0.124385186,0.13182677
306207.947596417,20000000,0.0056083202,0.0052661,-0.0070741177,-0.004220113,0.12056354,0.11774355
306207.967596417,0,0.0006753504,0.0035002828,0.0004208088,-0.04557042,0.13054745,0.10500371
306207.987596417,0,-0.019394666,-0.0019151866,0.017502189,-0.060755186,0.11668942,0.12895307
306208.007596417,20000000,-0.03844285,-0.006306827,0.025990903,-0.080649644,0.058261186,0.15280062
306208.027596417,0,-0.033145398,-0.016694307,0.023115695,-0.11623025,0.015661534,0.12139953
306208.047596417,20000000,-0.027851194,-0.027084053,0.020237386,-0.15181085,-0.02693811,0.08999844
306208.067596417,40000000,0.003804624,-0.028933287,-0.007151544,-0.15959117,0.014699686,-0.0014614463
306208.087596417,0,-0.004972607,-0.030380875,0.0023120642,-0.12153072,0.047720008,-0.040016983
306208.107596417,20000000,-0.00801751,-0.0073940456,-0.009741604,-0.14157721,0.10876836,-0.036504783
306208.127596417,0,-0.02504763,0.013463885,-0.010812223,-0.19733627,0.1792152,0.03284461
306208.147596417,0,-0.045297742,0.0016732961,0.0006118417,-0.2799198,0.25827515,0.12805267
306208.167596417,20000000,0.00025108457,-0.033966318,-0.006919682,-0.072288916,0.06905717,0.022799887
306208.187596417,0,-0.00587368,-0.035365283,-0.0009977818,-0.11295799,0.18855967,-0.07980554
306208.207596417,0,0.014586002,-0.07969493,0.023859084,-0.06063182,0.19030295,-0.11666563
306208.227596417,20000000,0.019936234,-0.08899203,0.03847617,-0.100746214,0.20225684,-0.09900905
306208.247596417,0,0.017857492,-0.02968955,0.007755816,-0.17991824,0.24929489,0.054092735
306208.267596417,0,0.0068143606,-0.031566426,0.006550789,-0.16200474,0.31224382,-0.08986676
306208.287596417,0,-0.025494128,-0.030747473,0.055314958,-0.10822582,0.041169256,-0.24383706
306208.307596417,0,0.012452275,-0.040913507,0.011613786,-0.10594527,0.01676096,-0.23909071
306208.327596417,20000000,0.032188445,-0.017015636,-0.00066155195,-0.08924551,0.12382618,-0.24051163
306208.347596417,0,-0.013495207,-0.051836714,0.049354315,0.05758418,-0.017382376,-0.3759325
306208.367596417,20000000,-0.0034623146,-0.027841687,0.013471127,0.052355375,-0.046048947,-0.43512335
306208.387596417,0,-0.0054739118,-0.0037826896,0.0049803257,0.08490767,-0.10294097,-0.44333178
306208.407596417,0,0.0034300387,0.012415126,-0.0039556623,0.109884135,-0.1073387,-0.40394485
306208.427596417,0,0.012337327,0.024265304,-0.013725102,0.1152426,-0.06791082,-0.35737664
306208.447596417,0,0.005534798,0.03390886,-0.012506425,0.08952566,-0.030369412,-0.2853878
306208.467596417,20000000,-0.0069773793,0.035424888,-0.0071142316,0.051621348,-0.0077527463,-0.19040659
306208.487596417,0,-0.013836503,0.03927301,-0.013774455,-0.0014456436,-0.0053173434,-0.105361715
306208.507596417,0,-0.019443065,0.028585091,-0.016274631,-0.045749344,-0.02390246,-0.07800746
306208.527596417,20000000,-0.034228057,0.010838285,-0.010884047,-0.029539675,-0.11047921,-0.1759514
306208.547596417,0,0.013722807,0.022298396,-0.027006805,0.13189824,-0.22480232,-0.23634465
306208.567596418,20000000,0.02063626,-0.002733335,-0.0101031065,0.1310287,-0.08590722,-0.17614438
306208.587596418,0,0.025922865,-0.015574291,-0.00599128,0.14277525,0.009800062,-0.11933263
