timestamp,dtNs,ax,ay,az,gx,gy,gz
326344.963351292,0,-0.7471471,0.24045518,-0.56207156,0.16351773,0.0498738,0.00046984293
326344.983351292,0,-0.52972853,0.09443743,-0.26411164,0.17850798,0.057651535,-0.0021187065
326345.003351292,20000000,-0.1981224,0.0048484355,-0.063819826,0.19349825,0.06542927,-0.0047072563
326345.023351292,0,0.005022928,-0.013565198,-0.00047659874,0.2266632,0.07026778,-0.006450952
326345.043351292,20000000,0.004318252,-0.016138673,3.71933e-05,0.23910841,0.05851586,0.00016925344
326345.063351292,40000000,0.0036125034,-0.018709973,0.0005376339,0.25155362,0.04676394,0.0067894594
326345.083351292,60000000,0.0029057264,-0.021279186,0.0010246038,0.26399884,0.03501202,0.013409665
326345.103351292,80000000,0.002197951,-0.023846284,0.001498282,0.27644405,0.023260098,0.02002987
326345.123351292,0,0.006547153,-0.026857257,-0.005539179,0.26443705,0.02597308,0.019156685
326345.143351292,0,0.009997651,-0.027259305,-0.004478693,0.2130518,0.026159506,0.0150254425
326345.163351292,20000000,0.010431007,-0.028862223,-0.002003491,0.18532924,0.02473897,0.011772221
326345.183351292,0,0.0099761635,-0.03507264,0.0042433143,0.14302453,0.006936389,0.0055458248
326345.203351292,0,0.014709026,-0.038488522,0.003911376,0.10947043,0.0035198792,-0.012429275
326345.223351292,0,0.015246719,-0.03466949,0.0047106147,0.08528276,0.0025256537,-0.024616566
326345.243351292,0,0.011077762,-0.027320996,0.004811704,0.048375208,-0.0033320426,-0.030039333
326345.263351292,20000000,0.00690791,-0.019972295,0.0049081445,0.011467658,-0.009189739,-0.035462104
326345.283351292,40000000,0.0027371794,-0.012623474,0.0049998164,-0.025439888,-0.015047435,-0.04088487
326345.303351292,0,0.0002655238,-0.009247333,0.0029250383,-0.033168096,-0.016611073,-0.023357896
326345.323351292,20000000,-0.0022060722,-0.0058711767,0.00085026026,-0.040896304,-0.018174712,-0.005830923
326345.343351292,40000000,-0.004677668,-0.0024949908,-0.001224637,-0.048624516,-0.01973835,0.01169605
326345.363351292,60000000,-0.0071491897,0.0008812547,-0.0032995343,-0.056352727,-0.02130199,0.029223025
326345.383351292,0,-0.012302294,0.003212586,0.0030101538,-0.05434701,-0.03965077,0.04810375
326345.403351292,20000000,-0.017455488,0.005543709,0.009319663,-0.052341286,-0.057999555,0.066984475
326345.423351292,0,-0.010677367,0.000940308,-0.002134204,-0.05183005,-0.061525863,0.073551774
326345.443351292,20000000,-0.009415671,-0.0023000985,0.0005118847,-0.04259595,-0.043782845,0.054099537
326345.463351292,40000000,-0.008154556,-0.005540818,0.00315696,-0.033361845,-0.026039831,0.034647297
326345.483351292,0,-0.011435688,-0.0026426762,0.007757485,-0.024422282,-0.034956537,0.01930323
326345.503351292,0,-0.01037325,-0.00075775385,0.004742086,-0.026556311,-0.04142332,0.01619478
326345.523351292,0,-0.010673806,0.0013388693,0.0028474927,-0.027679637,-0.04535653,0.021881087
326345.543351292,20000000,-0.010974258,0.0034350902,0.0009522438,-0.028802963,-0.04928974,0.027567394
326345.563351292,40000000,-0.011274591,0.005531013,-0.00094377995,-0.02992629,-0.05322295,0.0332537
326345.583351292,0,-0.014125586,0.007280126,-0.0053055882,-0.046539184,-0.046512797,0.066424936
326345.603351292,0,-0.014547914,0.0076006055,-0.006108463,-0.056171563,-0.03920404,0.07173014
326345.623351292,0,-0.019900009,0.00790602,-0.003862977,-0.06255397,-0.043799788,0.08943788
326345.643351292,0,-0.016361475,0.00180915,-0.0067067742,-0.061828468,-0.030400954,0.084933914
326345.663351292,20000000,-0.012824282,-0.0042883903,-0.009551942,-0.061102964,-0.01700212,0.08042995
326345.683351292,0,-0.0057045966,-0.011106402,-0.010398924,-0.06874289,0.010966804,0.0558509
326345.703351292,0,-0.004603818,-0.013376325,-0.007272184,-0.07316197,0.020943597,0.03260391
326345.723351292,0,-0.002527222,-0.014243633,-0.0032348037,-0.06989653,0.024836041,0.01406276
326345.743351293,20000000,-0.00045080483,-0.015110806,0.0008017421,-0.06663108,0.028728485,-0.0044783857
326345.763351293,0,0.0057879537,-0.017998815,-0.0009588003,-0.04378093,0.03348433,-0.04564359
326345.783351293,20000000,0.0077929944,-0.016991973,-0.0023097396,-0.036162898,0.034310583,-0.060600694
326345.803351293,0,0.011139691,-0.0133553445,-0.0015298724,-0.013728203,0.031758584,-0.091382466
326345.823351293,20000000,0.0115225315,-0.0107230395,-0.0024860501,-0.007594846,0.03156894,-0.10456927
326345.843351293,0,0.011881232,-0.007334769,0.0015888214,0.017752312,0.020632911,-0.13706395
326345.863351293,0,0.011182785,-0.009755537,0.0039725304,0.030418258,0.0105995005,-0.15867278
326345.883351293,20000000,0.010483757,-0.012176231,0.006356001,0.043084204,0.0005660886,-0.18028162
326345.903351293,0,0.011655554,-0.021226287,0.009983361,0.08137502,-0.02708308,-0.26900893
326345.923351293,0,0.008744255,-0.015218839,0.0050697923,0.09649262,-0.03317826,-0.30199695
326345.943351293,20000000,0.005826205,-0.0091995,0.0001526475,0.11161022,-0.039273437,-0.33498496
326345.963351293,40000000,0.0029013008,-0.0031683892,-0.004768193,0.12672782,-0.045368616,-0.36797297
326345.983351293,60000000,0.00072948635,0.013070181,-0.013566077,0.14565505,-0.024304654,-0.3667102
326346.003351293,0,-0.0025626868,0.022861153,-0.009705842,0.13950081,-0.016173143,-0.33346328
326346.023351293,20000000,-0.009100959,0.04102537,-0.0044134855,0.11514999,-0.0019404301,-0.23642975
326346.043351293,0,-0.007825151,0.042521328,-0.00651896,0.09978207,0.0072913812,-0.18065904
326346.063351293,0,-0.0058746487,0.041566163,-0.00668633,0.08761557,0.017491098,-0.13282512
326346.083351293,20000000,-0.0053759515,0.03757602,0.0005880594,0.06406229,0.028076537,-0.025660709
326346.103351293,0,-0.005092308,0.0338199,0.0009224415,0.059666242,0.02521825,0.0059309304
326346.123351293,20000000,-0.0048086047,0.030063793,0.0012567639,0.05527019,0.022359964,0.03752257
326346.143351293,0,9.918213e-05,0.012933776,0.0020889044,0.04910236,0.022145122,0.084435314
326346.163351293,0,0.002866611,0.0071849227,0.00015258789,0.056309126,0.017257877,0.09199243
326346.183351293,20000000,0.005634561,0.0014364719,-0.0017839074,0.063515894,0.012370631,0.09954955
326346.203351293,0,0.009552702,-0.0034447312,-0.0027096272,0.10663091,0.015198072,0.08636253
326346.223351293,20000000,0.0090364665,-0.0035882145,-0.0012789369,0.14594173,0.0108101675,0.08005098
326346.243351293,40000000,0.008523524,-0.003730327,0.00014543533,0.18525255,0.0064222626,0.07373943
326346.263351293,60000000,0.008013859,-0.0038711429,0.0015636086,0.22456336,0.0020343582,0.06742788
326346.283351293,0,0.008767605,-0.005380243,-0.00022125244,0.30495614,-0.0008102561,0.05430876
326346.303351293,20000000,0.008527502,-0.0071484596,0.0016056895,0.3304772,-0.005617918,0.042507105
326346.323351293,0,0.006385803,-0.0042212754,0.001719594,0.33019572,-0.013304754,0.029965116
326346.343351293,20000000,0.004246697,-0.0012896731,0.0018000007,0.3299142,-0.020991592,0.017423127
326346.363351293,0,-0.0019210726,0.00066147745,0.0052948594,0.2868344,-0.041436024,0.0133296605
326346.383351293,20000000,-0.0049449056,0.0021637082,0.005232215,0.2542661,-0.04934326,0.022954918
326346.403351293,0,-0.0064413846,0.0012411475,0.004419923,0.2205212,-0.052949116,0.03579823
326346.423076417,0,-0.00851307,-0.00079889526,-0.00056773913,0.13226344,-0.047118496,0.061829675
326346.443076417,20000000,-0.012189791,-0.001964204,0.0019873977,0.07298159,-0.04330017,0.08925744
326346.463076417,0,-0.010304585,-0.0055396035,-0.0014473796,0.030254398,-0.034564998,0.10079007
326346.483076417,20000000,-0.008418307,-0.009115644,-0.004882574,-0.012472793,-0.025829827,0.112322696
326346.503076417,0,-0.0031340867,-0.014555767,-0.011249661,-0.042283446,-0.0024543274,0.10529802
326346.522942000,0,0.0021331846,-0.027630534,-0.011583561,-0.07635944,0.04576162,0.07272702
326346.542942000,0,0.0024913847,-0.0266876,-0.008841276,-0.06857508,0.04283747,0.051179945
326346.562942000,20000000,0.0028493255,-0.025744274,-0.0060999393,-0.06079071,0.039913323,0.02963287
326346.582942000,40000000,0.0032071024,-0.02480051,-0.0033596158,-0.053006344,0.03698917,0.008085797
326346.602942000,60000000,0.0035646409,-0.023856334,-0.00062024593,-0.045221977,0.034065023,-0.013461279
326346.622942000,0,0.0061917305,-0.020670034,0.0014313459,-0.021104744,0.023387522,-0.06271346
326346.642942000,20000000,0.0062387884,-0.014537863,0.0023671389,-0.010136269,0.0008411091,-0.09902707
326346.662942000,0,0.008468762,-0.014116138,-0.00053691864,-0.010679368,0.009139671,-0.110558696
326346.682942000,20000000,0.009158924,-0.015382819,0.0013899207,0.0010448303,0.008417782,-0.13871206
326346.702942000,0,0.007649943,-0.01120393,-0.0007761121,9.0824615e-05,0.012547784,-0.14710099
326346.722942000,0,0.007821664,-0.0077516586,-0.00038027763,-0.0013288811,0.015507371,-0.15107378
326346.742942000,20000000,0.007993832,-0.004299514,1.5676022e-05,-0.0027485867,0.018466959,-0.15504658
326346.762942000,0,-1.4975667e-05,0.007814586,0.008294404,-0.0026999922,-0.0036544628,-0.111863896
326346.782942000,0,2.6538968e-05,0.008607335,0.0070890784,-0.0013552109,-0.012530908,-0.09009735
326346.802942000,20000000,6.829202e-05,0.009400412,0.0058837533,-1.0429649e-05,-0.021407355,-0.06833082
326346.822942000,0,0.0032020658,0.010579705,-0.00062054396,0.0028910516,-0.018257976,-0.037446532
326346.842942000,20000000,0.0028075278,0.010712497,-0.0014705062,0.005426991,-0.015046507,-0.025475642
326346.862942000,0,0.0006515831,0.007905282,-0.0005776882,0.040117636,-0.01971891,0.0066607343
326346.882942000,20000000,1.6883016e-05,0.005847588,-0.0008843541,0.058954127,-0.020177487,0.015184253
326347.008490417,0,0.0003415938,0.0020671901,0.0020477076,0.08471194,0.0037847126,-0.012363442
326347.028490417,0,-0.0006044209,-0.0020258948,0.0016394854,0.084054716,0.011821263,0.0031382134
326347.048490417,20000000,-0.0015498251,-0.006118655,0.0012277961,0.08339749,0.019857813,0.018639868
326347.068490417,0,-0.00011846423,-0.006020084,-0.00026893616,0.054747775,0.01585099,0.013419667
326347.088490417,20000000,0.0013133436,-0.0059213564,-0.0017665029,0.026098052,0.011844165,0.008199465
326347.108490417,40000000,0.0027457178,-0.00582242,-0.0032650828,-0.0025516711,0.00783734,0.0029792637
326347.128490417,0,0.0012172908,-0.010193326,-0.002801478,0.0039158566,-0.006510929,0.00015544402
326347.148490417,20000000,-0.00031109154,-0.014564201,-0.0023382306,0.010383384,-0.0208592,-0.0026683758
326347.168490417,40000000,-0.0018394887,-0.018935092,-0.0018751025,0.016850911,-0.03520747,-0.0054921955
326347.188490417,0,-0.0070420057,-0.015352204,0.0036138296,0.027257593,-0.05217365,-0.0052255495
326347.208490417,0,-0.009579778,-0.013922811,0.002763629,0.027409397,-0.07658777,-0.032760233
326347.228490417,20000000,-0.012117282,-0.012492754,0.0019109249,0.0275612,-0.10100189,-0.06029491
326347.248490417,0,-0.009996295,-0.012319088,0.0014230013,0.046351485,-0.10306885,-0.068277
326347.268490417,20000000,-0.007876009,-0.012139663,0.00092726946,0.06514177,-0.10513581,-0.0762591
326347.288490417,40000000,-0.0057564825,-0.011954561,0.00042378902,0.08393205,-0.107202776,-0.08424119
326347.308490417,60000000,-0.0042491257,-0.008890837,-0.0036579967,0.08027739,-0.0773153,-0.06720774
326347.328490417,0,-0.0057055205,-0.0073359236,-0.0032320023,0.07498088,-0.06334778,-0.053599067
326347.348490417,20000000,-0.007163137,-0.005778976,-0.0028098822,0.06968436,-0.04938026,-0.039990395
326347.368490417,0,-0.007780388,-0.00029105693,-0.003616035,0.057572484,-0.04218012,-0.02226162
326347.388490417,0,-0.007817656,-0.00054527074,-0.003986001,0.056542587,-0.037280217,-0.013317894
326347.408490417,20000000,-0.007854983,-0.0007991046,-0.0043576956,0.05551269,-0.032380313,-0.004374169
326347.428490417,40000000,-0.0053798556,0.0006905794,-0.0057803392,0.05655293,-0.025001146,-0.005849427
326347.448490417,0,-0.0029895902,0.0002945885,-0.006643653,0.055758446,-0.014118224,-0.017962096
326347.468490417,20000000,-0.0005996078,-0.00010115653,-0.0075082183,0.05496396,-0.0032353038,-0.030074766
326347.488490417,40000000,0.0012030303,0.0027673542,-0.006341338,0.046143986,-0.0013792373,-0.046842832
326347.508490417,0,-0.0008427501,0.0044083744,0.0016946197,0.047067888,-0.0078083733,-0.058291093
326347.528490417,20000000,-0.002889201,0.0060494617,0.00973016,0.047991794,-0.014237508,-0.06973935
326347.548490417,40000000,-0.000112727284,0.0047135055,0.0017872453,0.050028134,-0.011692865,-0.0738759
326347.568490417,0,0.004583463,0.00544481,-0.0011048913,0.06513362,-0.00032952428,-0.08101119
326347.588490417,20000000,0.009277791,0.006176412,-0.003998697,0.080239095,0.011033817,-0.088146485
326347.608490417,40000000,0.008675128,0.0039382875,-0.00221622,0.09238581,0.017294899,-0.09360636
326347.628490417,0,0.004229799,0.006393917,0.0021231174,0.108862095,-0.010919666,-0.07229804
326347.648490417,20000000,-0.00021846592,0.008850329,0.0064581633,0.12533838,-0.039134227,-0.050989725
326347.668490417,40000000,0.0050847232,0.0010006614,0.003548026,0.16303155,-0.05672743,-0.04631809
326347.688490417,0,0.0043687224,0.004323218,0.0024896264,0.17741427,-0.07539653,-0.031614874
326347.708490417,20000000,0.003651172,0.0076481104,0.0014164448,0.19179697,-0.09406563,-0.016911652
326347.728490417,40000000,0.004922077,0.0009862706,0.0020473003,0.21512958,-0.10214221,-0.011662964
326347.748490417,0,0.004416898,0.004297558,0.0005257726,0.23594396,-0.10806911,0.00063135475
326347.768490417,20000000,0.0039126575,0.0076116733,-0.001026988,0.25675833,-0.113996,0.012925672
326347.808490417,0,0.0029723942,0.0022575557,0.00011014938,0.27622235,-0.0768048,0.056846887
326347.828490417,20000000,-0.0010821372,0.0056575816,0.0033869743,0.28300542,-0.076020986,0.0843001
326347.848490417,40000000,-0.0017540455,0.0021144804,0.0015099645,0.25065234,-0.074989475,0.09459753
326347.868490417,0,-0.0015218928,-0.0013733571,-0.0017080903,0.188555,-0.051464774,0.0977459
326347.888490418,20000000,-0.001281783,-0.004862738,-0.004940808,0.12645766,-0.02794007,0.10089428
326347.908490417,40000000,-0.0051714107,-0.00019339984,-0.0061570406,0.05779562,-0.02621443,0.09182753
326347.928490418,0,-0.003164433,-0.0049435445,-0.005971849,0.02599055,-0.006712755,0.10926387
326347.948490418,20000000,-0.0011563152,-0.009693781,-0.0057867765,-0.0058145225,0.01278892,0.1267002
326347.968490418,40000000,0.0014252812,-0.014374437,-0.0066394806,-0.011718806,0.028293664,0.1325368
326347.988490418,0,0.00085006654,-0.022206234,-0.0014134645,0.010323847,0.018737864,0.11649853
326348.008490418,20000000,0.0002757609,-0.030036632,0.0038122535,0.032366496,0.009182065,0.10046026
326348.028490418,40000000,0.002440676,-0.03881724,0.004011035,0.063423544,-0.0028605722,0.061234504
326348.048490418,0,-0.0023628995,-0.030934071,0.008402288,0.082596496,-0.0111884335,0.065910675
326348.068490418,20000000,-0.007164955,-0.023051007,0.012788355,0.10176945,-0.019516295,0.070586845
326348.088490418,40000000,-0.011965506,-0.015168083,0.017169118,0.12094239,-0.027844157,0.075263016
326348.108490418,60000000,-0.007889681,-0.00901795,-0.0037144423,0.07073878,-0.017618012,0.08065113
326348.128490418,0,0.005304672,-0.0050243824,-0.018343031,-0.027372532,0.055340234,0.05980857
326348.148490418,0,-0.010412648,-0.015927996,0.016328096,-0.07629512,0.040166736,0.051406145
326348.168490418,20000000,-0.014881983,-0.015117225,0.011533856,-0.15993406,0.07291493,0.04310778
326348.188490418,0,-0.015263982,-0.028258493,0.015663922,-0.15022843,0.020076912,0.007730346
326348.208490418,20000000,0.006980747,-0.019586133,-0.017124474,-0.14024834,0.026590982,-0.08395867
326348.228490418,0,0.014974326,0.009644626,-0.028872013,-0.16356775,0.08012746,-0.13838317
326348.248490418,0,0.0021372885,0.020512363,-0.003430307,-0.14306425,0.07486648,-0.11815614
326348.268490418,20000000,-0.0033612102,0.023293838,-4.351139e-06,-0.112124085,0.09479385,-0.05099856
326348.288490418,0,-0.012276821,0.0069680037,0.011890471,-0.13838184,0.11715151,0.065757126
326348.308490418,20000000,-0.021194227,-0.009352951,0.023770988,-0.16463958,0.13950917,0.1825128
326348.328490418,40000000,0.03432843,-0.00023420341,-0.030692995,-0.118298166,0.20576108,0.11417523
326348.348490418,0,-0.004804909,0.0077446904,0.00025051832,-0.116721354,0.09794143,0.21080302
326348.368490418,20000000,-0.04394719,0.015739232,0.031180024,-0.11514454,-0.009878218,0.3074308
326348.388490418,40000000,-0.030826144,-0.02852893,0.0074347854,-0.09915942,-0.11583279,0.16381781
326348.408490418,0,-0.021849714,-0.019284772,-0.00041729212,-0.12875023,-0.078536496,0.18379816
326348.428490418,20000000,-0.012879759,-0.010046398,-0.008276641,-0.15834105,-0.041240193,0.2037785
326348.448490418,40000000,-0.018779173,-0.06127693,0.0063614845,-0.07591601,-0.056136202,0.11992411
326348.468490418,0,-0.02084893,-0.0530942,-0.0015726686,-0.050951988,-0.09209113,-0.003897667
326348.488490418,20000000,-0.022919193,-0.044912774,-0.009509981,-0.025987964,-0.12804607,-0.12771945
326348.508490418,40000000,-0.022104077,-0.01939846,-0.0011250973,0.048435476,-0.200804,-0.16843064
326348.528490418,0,-0.02354955,-0.019638853,0.010035336,0.05121,-0.17258292,-0.06299431
326348.548490418,20000000,-0.024994545,-0.019877765,0.021188378,0.053984523,-0.14436185,0.04244203
326348.568490418,40000000,-0.016518123,-0.03881768,0.011732221,0.06341527,-0.11244472,0.045295957
326348.588490418,0,-0.014209196,-0.026517268,0.0076522827,0.033597905,-0.11260387,0.0395471
326348.608490418,20000000,-0.011900164,-0.014217436,0.0035686493,0.003780542,-0.112763025,0.033798244
326348.628490418,40000000,-0.009591028,-0.0019181855,-0.0005185604,-0.026036818,-0.11292218,0.028049389
326348.648490418,60000000,-0.0072817802,0.010380492,-0.004609525,-0.055854175,-0.11308133,0.022300534
326348.668490418,80000000,-0.004972458,0.022678576,-0.008704066,-0.08567154,-0.11324048,0.016551679
326348.688490418,100000000,0.014470786,0.03895321,-0.033594728,-0.17563377,-0.060092155,0.0032995604
326348.708490418,0,0.011592656,0.02399512,-0.009652257,-0.17256844,-0.03098074,-0.03926587
326348.728490418,20000000,0.008715801,0.009037711,0.014274001,-0.16950311,-0.0018693246,-0.081831306
326348.748490418,40000000,0.033020213,0.06779815,-0.042998195,-0.32368234,0.18130204,0.06104034
326348.768490418,0,-0.008309275,0.012558524,-0.0125314,-0.18206288,-0.029332027,-0.062063567
326348.788490418,20000000,-0.04964056,-0.042678516,0.017908633,-0.04044342,-0.23996611,-0.18516746
326348.808490418,40000000,-0.044334255,0.1300214,-0.09989327,-0.2685279,-0.20129414,0.044686735
326348.828490418,0,-0.030151434,0.08601965,-0.063676715,-0.2589148,-0.038186267,0.10075586
326348.848490418,20000000,-0.015970707,0.04202336,-0.027481735,-0.2493017,0.12492159,0.15682499
326348.868490418,40000000,-0.0017920882,-0.0019674525,0.0086916685,-0.2396886,0.28802943,0.21289411
326348.888490418,60000000,0.010635778,-0.10440863,0.047483683,-0.012194335,-0.15355957,-0.07403907
326348.908490418,0,0.026629105,0.06792811,0.0106960535,-0.19945937,0.20098308,0.42382917
326348.928490418,20000000,0.031187713,0.039925545,-0.04087764,-0.22447684,0.30003285,0.44773763
326348.948490418,0,0.013599649,0.027845822,-0.0254578,-0.15833822,0.19142541,0.38534716
326348.968490419,20000000,-0.0039888173,0.015791327,-0.010045588,-0.092199594,0.08281798,0.32295668
326348.988490418,40000000,-0.021577418,0.0037621185,0.005358875,-0.026060961,-0.025789447,0.26056623
326349.008490419,0,-0.017763242,-0.026576933,0.0083191395,0.0015424117,-0.0893232,0.16708234
326349.028490419,0,-0.007126093,-0.026283123,-0.012761414,-0.024052445,-0.030814227,0.10549083
326349.048490419,20000000,-0.0060403347,-0.019546881,-0.014534593,-0.04638717,-0.00884277,0.04986851
326349.068490419,0,-0.0036741644,-0.0144268125,-0.009697676,-0.042319044,0.018739715,0.018777138
326349.088490419,20000000,-0.0013081729,-0.009306468,-0.004861295,-0.038250916,0.046322204,-0.012314236
326349.108490419,40000000,0.0037135035,-0.012093008,-0.015845299,-0.05017475,0.054553244,-0.09403524
326349.128490419,0,-0.0069731623,-0.01722034,0.0039940476,-0.033736266,-0.019065794,-0.25340995
326349.148490419,20000000,-0.017654553,-0.022346772,0.0238325,-0.017297784,-0.09268482,-0.41278467
326349.168490419,40000000,0.018296078,2.0891428e-05,0.0010465384,0.121992655,-0.23261426,-0.4265951
326349.188490419,0,0.013668433,0.013074949,0.011795819,0.14390337,-0.14944598,-0.2810412
326349.208490419,20000000,0.011954308,0.0032868013,0.012450874,0.15528789,-0.114547774,-0.19294298
326349.228490419,0,0.009380892,0.0006443709,0.012473285,0.14338121,-0.09762099,-0.17969473
326349.248490419,20000000,0.006802872,-0.001993917,0.012491584,0.13147452,-0.0806942,-0.16644648
326349.268490419,40000000,0.0042202026,-0.0046280622,0.012505591,0.119567834,-0.06376741,-0.15319823
326349.288490419,0,0.005028248,-0.0018512756,0.004556179,0.08255224,-0.03089378,-0.1207014
326349.308490419,20000000,0.0058336854,0.00092701614,-0.0033965707,0.04553665,0.001979854,-0.08820458
326349.328490419,40000000,0.00663656,0.0037068054,-0.011352599,0.008521061,0.03485349,-0.055707756
326349.348490419,0,0.0028110594,0.003838867,-0.009523749,-0.07846311,0.061997913,-0.0028740205
326349.388490419,0,-0.0048342496,0.004105285,-0.005902827,-0.25243145,0.11628676,0.102793455
326349.408490419,20000000,0.024691656,-0.023540497,-0.030210912,-0.23193946,0.23453741,0.11898259
326349.428490419,0,0.01059933,-0.011007771,-0.014927745,-0.18333335,0.07965146,0.12597154
326349.448490419,20000000,-0.0034981817,0.0015377477,0.00033968687,-0.13472724,-0.0752345,0.13296048
326349.468490419,0,0.015432313,0.025166944,0.002020359,-0.1443308,0.06492329,0.1960119
326349.488490419,20000000,0.034362465,0.04880763,0.0036868453,-0.15393436,0.20508108,0.2590633
326349.508490419,40000000,0.05329238,0.07245985,0.0053391457,-0.16353793,0.34523886,0.32211474
326349.528490419,0,0.037184104,0.05383852,0.010916114,-0.081859194,0.22596791,0.24089752
326349.548490419,20000000,0.02107872,0.035219118,0.016489685,-0.00018046051,0.10669697,0.15968032
326349.568490419,40000000,0.0049762726,0.016601652,0.022059739,0.08149829,-0.012573972,0.07846312
326349.588490419,0,0.00854215,0.0029653013,-0.008948445,0.09215889,0.0055473614,0.0007926151
326349.608490419,0,0.007790506,0.0013277233,-0.0085603595,0.076477155,0.008546048,-0.014530894
326349.628490419,20000000,0.007038057,-0.0003100708,-0.008173466,0.06079542,0.011544734,-0.029854404
326349.648490419,40000000,0.006284699,-0.0019481108,-0.0077878237,0.045113675,0.014543422,-0.045177914
326349.668490419,60000000,0.005530566,-0.0035863817,-0.007403493,0.029431935,0.017542109,-0.060501423
326349.688490419,80000000,0.004775524,-0.0052248985,-0.0070204735,0.0137501955,0.020540796,-0.07582493
326349.728490419,0,-0.0007789731,-0.0070819557,-0.0029885173,-0.004142302,0.006270716,-0.12876633
326349.748490419,20000000,-0.0029627532,-0.008403823,-0.0034155846,-0.009276568,-0.0022015749,-0.16094962
326349.768490419,40000000,-0.008277789,-0.013816103,0.0020232797,0.0064583635,-0.05205327,-0.2293908
326349.788490419,0,-0.0056069046,-0.009177983,0.016187072,0.09115948,-0.14905229,-0.35190496
326349.808490419,20000000,-0.0029343665,-0.004517399,0.030344367,0.17586058,-0.24605133,-0.47441912
326349.828490419,40000000,0.0027435273,0.033495292,0.004852414,0.1704947,-0.1770752,-0.22849824
326349.848490419,0,0.011235833,0.007292792,0.0023514628,0.17185506,-0.14355558,-0.21832539
326349.868490419,20000000,0.019716322,-0.018890992,-0.00017482042,0.17321543,-0.11003597,-0.20815255
326349.888490419,40000000,-0.001817435,-0.0312785,0.022096813,0.1587075,-0.11554655,-0.19700517
326349.908490419,0,-0.0012151897,-0.020052254,0.013291299,0.14381574,-0.099029325,-0.17154226
326349.928490419,20000000,-0.00061893463,-0.008816861,0.00447464,0.12892398,-0.08251211,-0.14607933
326349.948490419,40000000,-0.0044139028,0.02346655,-0.006142199,0.073415875,-0.011897832,-0.06034387
326349.968490419,0,-0.011329725,0.02627553,-0.009428561,0.004028477,0.06999442,-0.018472418
326349.988490419,20000000,-0.018245041,0.029083394,-0.012718439,-0.06535893,0.15188667,0.023399033
326350.008490419,40000000,-0.015387461,0.024297759,-0.016725242,-0.17028473,0.17936975,0.0435082
326350.028490419,0,-0.010620236,0.031253755,-0.004561126,-0.2319213,0.18297116,0.11101565
326350.048490420,20000000,-0.0058562756,0.038221695,0.00756371,-0.29355788,0.18657258,0.1785231
326350.068490419,40000000,0.023855954,0.056178562,-0.010560095,-0.31832224,0.27004558,0.43439808
326350.088490420,0,0.020350635,0.0032722652,0.039167464,-0.20978323,0.22724587,0.31852555
326350.108490420,20000000,0.016835272,-0.049588513,0.08884299,-0.1012442,0.18444616,0.20265302
326350.128490420,40000000,-0.07453577,-0.019889861,0.064509034,-0.044179928,0.055249408,0.18078968
326350.148490420,0,-0.03282246,-0.024812918,0.03463018,-0.0063097775,0.034238495,0.043335617
326350.168490420,20000000,0.008890748,-0.029735338,0.004750967,0.031560373,0.01322758,-0.094118446
326350.188490420,40000000,0.00017814338,0.0094300285,0.010211647,0.0664646,-0.02225961,-0.09309861
326350.208490420,0,0.00077700615,0.013826251,0.013349533,0.07300715,-0.039392363,-0.072031096
326350.228490420,20000000,0.001372546,0.018225014,0.016483307,0.0795497,-0.056525115,-0.05096358
326350.248490420,40000000,0.005981311,0.015418991,-0.0046483874,0.050797146,-0.018433008,-0.042328056
326350.268490420,0,0.00096078217,0.01769647,-0.00024676323,0.030694854,-0.018738654,-0.0075657405
326350.288490420,20000000,-0.004059851,0.019974098,0.004154384,0.010592561,-0.019044299,0.027196575
326350.308490420,40000000,-0.0057535022,0.01242023,0.001798451,-0.0031203143,-0.028578801,0.053236283
326350.328490420,0,-0.0037276447,0.0018926859,-0.0029531121,-0.012434962,-0.02410607,0.045134813
326350.348490420,20000000,-0.0017019361,-0.008635327,-0.0077049136,-0.02174961,-0.019633338,0.037033346
326350.368490420,40000000,0.00081801414,-0.01613266,-0.0072995424,-0.02407958,-0.0043817703,-0.017921165
326350.388490420,0,-0.0026334375,-0.015052132,0.0006458163,-0.0056560785,-0.028019596,-0.07561761
326350.408490420,20000000,-0.0060840994,-0.013970681,0.008590937,0.012767423,-0.051657423,-0.13331406
326350.428490420,0,-0.022773266,-0.06789,0.004998684,0.1712088,-0.16547602,-0.41048193
326350.448490420,20000000,0.003013134,0.033839926,-0.0016698241,0.12928608,-0.15399365,-0.21979141
326350.468490420,0,-0.02335088,-0.062397055,0.060740113,0.24706194,-0.28053483,-0.15206596
326350.488490420,20000000,0.036829248,-0.031428657,-0.024909794,0.21792617,-0.113090605,-0.14914036
326350.508490420,0,0.014180794,-0.0064033493,-0.012939155,0.1725395,-0.114548035,-0.108232714
326350.548490420,0,-0.006105423,0.014305711,-0.008923709,0.09807025,-0.07192007,-0.014877159
326350.568490420,0,-0.0028543472,0.013890248,-0.010951996,0.052455273,0.01660145,0.04600736
326350.588490420,20000000,0.00039815903,0.013475083,-0.012982905,0.006840296,0.105122976,0.106891885
326350.608490420,40000000,-0.0011833012,-0.0116978735,-0.0074698925,-0.0501996,0.19325936,0.123349994
326350.628490420,0,0.0032332689,-0.0047367215,-0.00010275841,-0.11663714,0.21915197,0.16970287
326350.648490420,20000000,0.0076455027,0.0022395924,0.0072306395,-0.18307468,0.24504459,0.21605575
326350.668490420,40000000,0.012053624,0.009231187,0.014530361,-0.2495122,0.2709372,0.26240864
326350.688490420,0,0.041341245,-0.0038281083,0.016464293,-0.22361526,0.49806377,0.032568544
326350.708490420,20000000,0.07061806,-0.01679936,0.018303216,-0.19771832,0.72519034,-0.19727154
326350.728490420,0,-0.062509075,0.030634545,0.14632946,0.03394629,-0.0798561,0.114214614
326350.748490420,0,-0.010802224,-0.020272229,0.056992114,0.06765196,-0.0870969,-0.03012295
326350.768490420,20000000,0.04090506,-0.071179785,-0.032346845,0.10135762,-0.0943377,-0.17446049
326350.788490420,40000000,0.014200777,-0.038172357,0.0023063421,0.09245423,-0.05726949,-0.16974327
326350.808490420,0,-0.019179747,-0.024147078,-0.0005518794,0.09423156,-0.07062036,-0.15542585
326350.828490420,20000000,-0.052563623,-0.010118522,-0.003412962,0.09600889,-0.08397122,-0.14110842
326350.848490420,40000000,-0.008097678,0.0031919554,-0.012984037,0.09099314,-0.028654486,-0.101383656
326350.868490420,0,-0.0066699237,0.0074097887,-0.010597169,0.07631768,-0.01796446,-0.06549507
326350.888490420,20000000,-0.005243689,0.011628024,-0.008212328,0.06164223,-0.007274436,-0.029606476
326350.908490420,40000000,0.0016006231,0.015014499,-0.016105652,0.030822363,0.025616376,0.0010884367
326350.928490420,0,-0.002329737,0.011893526,-0.004992366,0.021803208,0.015579642,0.013381739
326350.948490420,20000000,-0.0062599927,0.0087726265,0.0061203837,0.012784052,0.005542909,0.025675042
326350.968490420,40000000,-0.0034071952,-0.00088521093,0.010721564,0.018167928,-0.014345412,0.023786262
326350.988490420,0,-0.0033705235,-0.0029907003,0.009861052,0.010666794,-0.026133759,0.0054919682
326351.008490420,20000000,-0.0033337474,-0.005096197,0.009000301,0.0031656614,-0.037922107,-0.012802325
326351.028490420,40000000,-0.0031101555,-0.012996864,0.0032594204,0.007057711,-0.042530466,-0.039880946
326351.048490420,0,-0.004161522,-0.011875071,0.003886342,0.010726299,-0.047362506,-0.07055192
326351.068490420,20000000,-0.005212635,-0.010752153,0.004512608,0.014394887,-0.052194543,-0.10122288
326351.088490420,40000000,-0.009181604,-0.0048294775,0.0006274581,0.021861544,-0.08077775,-0.14704329
326351.108490421,0,0.0014831126,0.012760967,-0.0010910034,0.09187804,-0.13512033,-0.21224582
326351.128490421,20000000,0.012143031,0.03038431,-0.0028306246,0.16189453,-0.18946292,-0.27744836
326351.148490420,40000000,-0.0033437312,-0.061037175,0.037850022,0.27027014,-0.2709111,-0.20063418
326351.168490421,0,-0.0052894503,-0.05253918,0.029341757,0.22778125,-0.20010841,-0.17506139
326351.228490421,0,-0.023765206,0.0036197081,0.007417202,0.02181051,-0.01078606,-0.01784186
326351.248490421,0,0.014721036,-0.0031076334,-0.05085939,-0.04886245,0.19364724,-0.019968182
326351.268490421,20000000,-0.021823928,0.025159314,-0.003930211,-0.09238496,0.2069827,0.05542124
326351.288490421,0,-0.021106124,-0.045005724,0.013123155,-0.09302353,0.27131844,0.09624286
326351.308490421,20000000,-0.020412013,-0.115103036,0.030087769,-0.09366211,0.33565414,0.13706449
326351.328490421,40000000,-0.019740433,-0.18513188,0.04696381,-0.09430069,0.39998987,0.17788611
326351.348490421,0,-0.017044753,-0.01627794,0.10057062,0.0027625859,0.049184322,0.15355447
326351.368490421,0,-0.118403174,0.1923606,-0.030456185,-0.23015654,-0.102613345,0.6004652
326351.388490421,20000000,0.028677344,-0.070220985,-0.041184902,0.014843836,-0.08766143,0.00048959255
326351.408490421,0,-0.002085194,-0.035391293,-0.020228505,0.029413763,-0.1283123,-0.086134784
326351.428490421,20000000,0.008722082,-0.024475947,-0.022287965,0.024796303,-0.041336603,-0.12050676
326351.448490421,0,0.0041095167,-0.015183538,-0.013202548,0.037825905,-0.02223235,-0.11694422
326351.468490421,20000000,-0.0005044192,-0.005889952,-0.0041176677,0.050855502,-0.0031280965,-0.113381684
326351.488490421,40000000,-0.008921295,0.002607651,0.00030517578,0.040813066,-0.02461503,-0.10047025
326351.508490421,0,-0.00078997016,0.009792924,-0.0040338635,0.030428898,-0.013220553,-0.08816242
326351.528490421,0,-0.0016935319,0.013056971,-5.0246716e-05,0.01942885,-0.01543398,-0.068967514
326351.548490421,20000000,-0.004184082,0.015705839,0.0033322573,0.009999741,-0.024221614,-0.038143046
326351.568490421,0,-0.0047564805,0.01186198,0.0015024543,0.0066969167,-0.027469551,-0.02372362
326351.588490421,20000000,-0.005328819,0.008018181,-0.00032782555,0.0033940922,-0.030717488,-0.009304196
326351.608490421,40000000,-0.0059010834,0.004174426,-0.002158463,9.126798e-05,-0.033965424,0.0051152287
326351.628490421,0,-0.004049003,0.001286149,-0.0052422285,-0.009468273,-0.029616937,0.006609953
326351.648490421,20000000,-0.002196908,-0.0016023219,-0.00832665,-0.019027814,-0.02526845,0.008104677
326351.668490421,40000000,-0.0024995953,-0.011871994,-0.007288873,-0.013102147,-0.012728443,-0.012434316
326351.688490421,0,-0.0088740885,-0.012683615,-0.0016027689,-0.0046631433,-0.032013215,-0.058847964
326351.708490421,0,-0.042375147,-0.054489158,0.0036988854,0.102103874,-0.18448359,-0.31453755
326351.728490421,0,-0.015191317,-0.0014007464,-0.00031727552,0.11769796,-0.17370673,-0.15897857
326351.748490421,0,-0.0045243353,-0.0016498491,-0.011175573,0.116153985,-0.13855289,-0.15122364
326351.768490421,20000000,0.006137401,-0.0018830299,-0.022054732,0.11461,-0.10339906,-0.14346872
326351.788490421,40000000,-0.0064438134,-0.0029729828,-0.00018256903,0.12279679,-0.12536979,-0.12593588
326351.808490421,0,-0.0012417287,-0.0038893074,-0.004698634,0.08474007,-0.107014455,-0.113479376
326351.828490421,20000000,-0.008910209,-0.004996594,0.0033530593,0.07768297,-0.12305243,-0.08651668
326351.848490421,0,0.0007945746,0.003477063,-0.0050543547,0.060293324,-0.10528704,-0.08482069
326351.868490421,0,-0.0021371543,0.016181692,-0.0033442974,0.023783576,-0.101599455,-0.06718013
326351.888490421,20000000,0.004584864,0.007303875,-0.002590537,0.0096955355,-0.07944559,-0.052198216
326351.908490421,0,-0.008465797,0.011612944,-0.009466231,0.0033839005,-0.08360194,-0.037809197
326351.928490421,20000000,-0.001217559,0.040944047,-0.020973861,-0.06833117,-0.027015083,0.01602916
326351.948490421,0,0.002271369,0.007569872,-0.0033190846,-0.10729201,-0.015465798,-0.017608594
326351.968490421,0,0.015550852,-0.032462075,0.0042042136,-0.13471031,0.03715694,0.0110727865
326351.988490421,20000000,-0.010800496,-0.04523771,-0.006957054,-0.13960667,0.03410502,-0.032194912
326352.008490421,0,-0.012426525,-0.02485754,-0.017599285,-0.13736553,0.0464778,-0.028040394
326352.028490421,20000000,0.00031764805,0.012732051,-0.03003025,-0.1421918,0.18215774,0.04274135
326352.048490421,0,0.0066645294,0.053049587,-0.033489645,-0.1990384,0.2133682,0.14883873
326352.068490421,20000000,0.013009146,0.09338023,-0.036966205,-0.255885,0.24457867,0.25493613
326352.088490421,40000000,0.019351572,0.13372403,-0.04046011,-0.31273162,0.27578914,0.36103353
326352.108490421,60000000,-0.02143231,0.07795977,-0.008842349,-0.244019,0.20438741,0.38159066
326352.128490421,0,-0.04175356,0.057212777,0.03678751,-0.044919193,-0.021584153,0.33679733
326352.148490421,20000000,-0.006177157,0.013300955,5.4836273e-05,0.03584139,-0.044189528,0.2338123
326352.168490421,0,-0.0010900795,-0.00058522075,-0.0035783052,0.049854133,-0.04057756,0.16163202
326352.188490422,20000000,0.0040020347,-0.014473151,-0.007214546,0.063866876,-0.036965594,0.089451745
326352.228490422,0,-0.002132818,-0.0063162893,-0.0052749515,0.049977362,-0.027075209,0.038464036
326352.248490422,20000000,-0.0026958734,-0.0026972145,-0.0066061616,0.041226,-0.017770646,0.021998571
326352.268490422,40000000,-0.003363192,0.0015532374,-0.0064686537,0.033732306,-0.0029099649,0.023939846
326352.288490422,0,-0.0052337497,0.00060976297,-0.002566278,0.023943478,-0.0051088897,0.027223473
326352.308490422,20000000,-0.00710395,-0.0003336668,0.0013357401,0.014154649,-0.0073078144,0.0305071
326352.328490422,40000000,-0.0024352819,-0.0033892132,-0.0032644272,0.004656855,0.009351429,0.030860554
326352.348490422,0,-0.0032470822,-0.006293323,-0.0023271441,-0.011431482,0.0020101238,0.00979889
326352.368490422,20000000,-0.004058838,-0.009197377,-0.0013899803,-0.02751982,-0.005331181,-0.011262776
326352.388490422,40000000,-0.003368944,-0.012918249,-0.00031507015,-0.046873417,0.008615411,-0.06388899
326352.408490422,0,-0.010293439,-0.021080162,-0.016170323,0.018290032,-0.044443835,-0.19937444
326352.428490422,20000000,-0.017216638,-0.029237308,-0.03202796,0.08345348,-0.09750308,-0.3348599
326352.448490422,40000000,-0.020413175,0.030503474,-0.01000005,0.16089875,-0.14602473,-0.24236667
326352.468490422,0,-0.0094380975,0.009934392,-0.007935286,0.105274856,-0.13872166,-0.181851
326352.488490422,20000000,0.0015339404,-0.010625206,-0.0058820248,0.04965096,-0.13141857,-0.12133532
326352.508490422,40000000,0.010790169,0.00020141155,-0.010315537,-0.001763083,-0.07298069,-0.044403575
326352.528490422,0,0.006395921,-0.009193763,-0.0068469048,0.015102334,-0.06189659,-0.07368163
326352.548490422,20000000,0.0020019263,-0.018586036,-0.0033802986,0.03196775,-0.05081249,-0.102959685
326352.568490422,40000000,0.0013592094,-0.00631034,-0.005692303,0.016230617,-0.04097247,-0.11535585
326352.588490422,0,-0.0040960163,0.0058247037,-0.0019007921,-0.017532222,-0.03416597,-0.07692762
326352.608490422,20000000,-0.00955002,0.017960258,0.0018898249,-0.051295064,-0.02735947,-0.03849938
326352.628490422,40000000,-0.015002817,0.030096352,0.005679488,-0.08505791,-0.02055297,-7.114187e-05
326352.648490422,0,-0.022448406,0.0042722896,0.011417329,-0.04117645,-0.037803166,-0.07581337
326352.668490422,20000000,-0.029891536,-0.021551035,0.01715362,0.0027050078,-0.055053364,-0.1515556
326352.688490422,40000000,-0.037332214,-0.047373615,0.022888362,0.046586465,-0.07230356,-0.22729781
326352.708490422,60000000,-0.012460545,-0.0044910014,0.012031317,-0.008572139,-0.039679464,-0.014346585
326352.728490422,0,-0.048718423,0.06462327,-0.00914222,-0.08256081,0.062203955,0.10033916
326352.748490422,20000000,0.015364185,0.016662255,-0.027345061,-0.09159896,0.087005295,0.1354853
326352.768490422,0,0.011020467,0.023310684,-0.034678936,-0.08393736,0.20067951,0.28670394
326352.788490422,20000000,0.0066725463,0.029996604,-0.042048693,-0.076275766,0.3143537,0.4379226
326352.808490422,40000000,-0.026046827,-0.04256341,0.017051995,0.034591585,0.09429054,0.2880123
326352.828490422,0,-0.018639952,-0.033664234,0.012103975,0.027815897,0.06152195,0.20876938
326352.848490422,20000000,-0.011230588,-0.024764046,0.007155359,0.021040209,0.028753366,0.12952647
326352.868490422,40000000,-0.0038187653,-0.015862875,0.002206266,0.01426452,-0.0040152185,0.050283544
326352.888490422,0,-0.0033256263,-0.01032747,0.0020782351,0.015874213,-0.012684961,0.018494278
326352.908490422,0,-0.0038107485,-0.0074389577,-0.0011337996,0.0098416805,-0.0074989386,0.010684572
326352.928490422,20000000,-0.0042957664,-0.004550472,-0.0043460727,0.003809149,-0.0023129159,0.0028748661
326352.948490422,0,-0.0032083243,-0.003100507,-0.003489852,-0.00436057,0.0016061584,0.005003131
326352.968490422,20000000,-0.002120912,-0.0016505346,-0.0026336908,-0.01253029,0.0055252328,0.007131396
326352.988490422,40000000,-0.0010334998,-0.00020055473,-0.0017775297,-0.020700008,0.009444308,0.009259661
326353.008490422,0,-0.004355356,-0.0031792298,0.0034481287,-0.01956304,-0.0019223271,0.01516428
326353.028490422,0,-0.0012518913,-0.004409313,-0.004823029,-0.022740934,0.010513506,0.019638836
326353.048490422,20000000,0.001851365,-0.005639367,-0.013094485,-0.025918826,0.02294934,0.024113394
326353.068490422,0,-0.0012254119,-0.005981602,-0.007838368,-0.025245903,0.014302546,0.0074693337
326353.088490422,20000000,-0.0043022335,-0.006323725,-0.0025826097,-0.02457298,0.0056557525,-0.009174725
326353.108490422,40000000,-0.007379055,-0.0066657364,0.0026727915,-0.023900058,-0.0029910412,-0.025818784
326353.128490422,0,-0.010296673,-0.018437993,-0.008028805,-0.009629676,-0.042589888,-0.1375741
326353.148490422,20000000,-0.013210863,-0.030206218,-0.018732786,0.004640706,-0.082188725,-0.24932942
326353.168490422,40000000,-0.016121686,-0.0419704,-0.029439151,0.018911088,-0.12178756,-0.36108476
326353.208490422,0,-0.007474333,-0.009140804,-0.010980427,0.08783437,-0.14861423,-0.20617256
326353.228490422,20000000,0.0019005686,0.009616546,0.0016300678,0.050411213,-0.120372064,-0.03407833
326353.248490422,40000000,0.009984106,-0.016427055,0.006174147,0.036340103,-0.093427435,-0.02911894
326353.268490423,0,0.004407361,-0.025665682,0.0060970187,0.04567594,-0.09789027,-0.061626874
326353.288490423,0,-0.0034469217,0.0044055805,-0.0007339716,0.022837577,-0.09793671,-0.058504216
326353.308490423,20000000,0.0025313646,0.007136926,-0.0155822635,0.005394535,-0.07950874,-0.05510988
326353.328490423,0,-0.00576894,0.0024476424,-0.00055241585,-0.01790197,-0.088371575,-0.07725591
326353.348490423,20000000,-0.014068693,-0.0022396669,0.014475048,-0.041198473,-0.09723441,-0.09940194
326353.388490423,0,-0.003127113,-0.018083047,0.0134446025,-0.11543375,-0.06012088,-0.17539647
326353.408490423,20000000,0.007843614,-0.013764225,-0.004192829,-0.15274891,0.065217316,-0.18007602
326353.428490423,0,-0.021312281,0.011875503,0.001183331,-0.18607618,0.059538312,0.019667178
326353.448490423,0,-0.02681876,0.026014507,0.0145943165,-0.129399,0.05078629,0.07982673
326353.468490423,20000000,-0.032322027,0.04015336,0.027991354,-0.072721824,0.042034272,0.13998628
326353.488490423,40000000,0.03591633,0.15533043,-0.066455126,-0.15761371,0.40989134,0.5497437
326353.508490423,0,0.007440597,0.09166911,-0.03253889,-0.06179422,0.21983324,0.38600153
326353.528490423,20000000,-0.021018744,0.02803132,0.0013637543,0.034025274,0.029775128,0.22225931
326353.548490423,40000000,-0.003826335,0.000399217,0.0017105341,0.021242445,0.0046562217,0.1592395
326353.568490423,0,-0.000121191144,-0.0071708485,-0.006354749,0.0066737505,0.024374135,0.13090602
326353.588490423,20000000,0.0035850257,-0.014739402,-0.014420092,-0.007894944,0.04409205,0.102572516
326353.608490423,40000000,0.00018379092,-0.016696703,-0.0030331016,-0.00024182955,0.04220296,0.0595028
326353.628490423,0,-0.0022846162,-0.011960521,0.002446711,-0.008515455,0.030553091,0.04280922
326353.648490423,20000000,-0.0047529936,-0.007223554,0.007925868,-0.016789079,0.018903224,0.026115635
326353.668490423,40000000,-6.4477324e-05,-0.010165691,0.0047245026,-0.0119277965,0.009853857,0.0034502298
326353.688490423,0,-0.0009788573,-0.0058401823,0.0032986403,0.009232078,-0.0030836966,0.0016316815
326353.708490423,20000000,-0.0021603853,0.00060816854,-0.00021028519,0.017592227,-0.0066059027,0.00094239693
326353.728490423,0,-0.005039811,0.0040663034,-0.002763927,0.009606905,-0.012050938,0.0058847764
326353.748490423,20000000,-0.007919177,0.0075244457,-0.005317807,0.0016215825,-0.017495973,0.010827156
326353.768490423,40000000,-0.013323113,-0.0017391071,0.0015875101,0.009394705,-0.04642526,0.01207814
326353.788490423,0,-0.013882384,-0.004148945,-0.004109323,0.00012345519,-0.022166632,0.018517587
326353.808490423,20000000,-0.014441639,-0.0065587386,-0.009806156,-0.009147794,0.0020919982,0.024957033
326353.828490423,40000000,-0.023542672,-0.053111613,0.0042894483,0.058049127,-0.07772676,-0.1535957
326353.848490423,0,-0.011427492,-0.032726854,0.002379775,0.11577012,-0.096343495,-0.17458576
326353.868490423,20000000,0.00067970157,-0.012324695,0.00045448542,0.1734911,-0.11496023,-0.19557582
326353.888490423,40000000,0.0014788657,0.006382361,0.004567623,0.15723188,-0.090247296,-0.09421035
326353.908490423,0,0.0024689734,0.0013950095,0.0036070943,0.14330362,-0.06998396,-0.0581744
326353.928490423,20000000,0.0034569502,-0.0035889037,0.002634585,0.12937535,-0.04972062,-0.022138458
326353.948490423,40000000,-0.0027379692,-0.0029446855,0.0047288537,0.093225494,-0.030323686,0.018157937
326353.968490423,0,-0.002695635,-0.0010907389,-0.0049345493,0.019385926,0.0408331,0.051383026
326353.988490423,20000000,-0.0026525408,0.00076409057,-0.014598727,-0.054453656,0.11198989,0.084608115
326354.008490423,40000000,0.0047442764,0.0318265,-0.029662967,-0.15628383,0.23035601,0.21392769
326354.028490423,0,-0.024222806,-0.041876413,0.040536165,-0.11302826,0.17402184,0.1881765
326354.048490423,20000000,-0.053204603,-0.11550772,0.11066121,-0.06977269,0.11768767,0.16242531
326354.068490423,40000000,-0.037686974,-0.05881235,0.046706676,-0.12913017,0.04417681,0.118666545
326354.088490423,0,-0.02356717,-0.043793947,0.027483582,-0.12644446,0.030434387,0.08159956
326354.108490423,20000000,-0.0094512105,-0.028772607,0.008253932,-0.12375873,0.016691962,0.044532575
326354.128490423,40000000,-0.0052203387,-0.031039704,-0.0056939125,-0.116560504,0.030454516,-0.022745468
326354.148490423,0,-0.010474384,-0.03715314,0.010965288,-0.052429907,-0.0270475,-0.112974904
326354.168490423,20000000,-0.01572521,-0.04326569,0.027621925,0.011700697,-0.08454952,-0.20320433
326354.188490423,40000000,-0.0104494095,-0.02216841,0.012830615,0.044523355,-0.06133025,-0.20914897
326354.208490423,0,-0.005364582,-0.007419981,0.009307921,0.06344131,-0.04857514,-0.19338211
326354.228490423,20000000,-0.00028331578,0.0073329583,0.005782366,0.08235926,-0.03582003,-0.17761524
326354.248490423,40000000,-0.0069573224,0.014988981,0.0132498145,0.057599194,-0.037717488,-0.1322156
326354.268490423,0,-0.008902773,0.018732272,0.0080115795,0.040417843,-0.03214878,-0.07812434
326354.288490423,20000000,-0.010848552,0.02247651,0.0027728677,0.023236489,-0.026580067,-0.02403307
326354.308490423,40000000,-0.006929368,0.019100763,-0.004978478,0.0073356405,-0.011209652,0.018055249
326354.328490424,0,-0.003466338,0.011148922,-0.0068033934,-0.013131337,0.0015249709,0.036494497
326354.348490424,0,-0.0021417588,0.0048680976,-0.0053989887,-0.032049287,0.01117361,0.041628852
326354.368490424,20000000,-0.0058035105,-0.002769284,-0.00068831444,-0.032104064,0.004034116,0.040601227
326354.388490424,0,-0.004488796,-0.0031130165,-0.0027698874,-0.004718462,0.0022598566,0.02864853
326354.408490424,20000000,-0.0031738877,-0.0034568235,-0.004851699,0.02266714,0.0004855974,0.016695831
326354.428490424,40000000,-0.0018588156,-0.0038006753,-0.0069336295,0.050052743,-0.001288662,0.0047431337
326354.448490424,0,-0.0036794245,-0.0049772337,-0.0024061203,0.044111814,-0.012686,-0.008189925
326354.468490424,20000000,-0.005500257,-0.006153509,0.0021206737,0.038170885,-0.024083339,-0.021122985
326354.488490424,40000000,-0.0073214024,-0.007329501,0.006646812,0.032229953,-0.035480678,-0.03405604
326354.508490424,60000000,-0.0053987354,-0.007342823,0.00498873,0.017045483,-0.03838039,-0.03526533
326354.528490424,0,-0.006826818,0.018789493,0.010986924,0.00999485,-0.12170276,-0.06126604
326354.548490424,20000000,-0.008255005,0.044929042,0.016979337,0.0029442175,-0.20502514,-0.08726674
326354.568490424,0,0.0022458285,0.023434453,0.0061226487,-0.0034880666,-0.15498415,-0.04312526
326354.588490424,0,0.0013682693,-0.048396945,0.016566694,0.101779364,-0.1553741,-0.08005396
326354.608490424,20000000,0.013345733,-0.024677671,-0.0015553832,0.10327774,-0.099871725,-0.10364655
326354.628490424,0,0.004943058,-0.009817056,0.0023519993,0.07373849,-0.08833744,-0.083297595
326354.648490424,20000000,-0.0034611076,0.00504604,0.006256342,0.044199243,-0.07680314,-0.062948644
326354.668490424,40000000,-0.0031772554,0.005722426,-0.0022097826,0.031800702,-0.045197636,-0.06323909
326354.688490424,0,-0.005131036,0.0048274025,0.0032976866,0.024306778,-0.07185211,-0.06343861
326354.708490424,20000000,-0.007084951,0.003934242,0.008803308,0.016812852,-0.098506585,-0.06363812
326354.728490424,40000000,-0.0005080998,0.01014135,-0.003342986,-0.0068544503,-0.07286453,-0.061455626
326354.748490424,0,0.00046873093,0.02256751,-0.008249998,-0.06815603,-0.044000134,-0.03870656
326354.768490424,20000000,0.0014466643,0.03499481,-0.013158977,-0.1294576,-0.015135733,-0.015957493
326354.788490424,40000000,-0.011206761,-0.0032352954,-0.0018692017,-0.16785401,0.04840537,0.019781161
326354.808490424,0,0.0051535666,-0.02274935,-0.021165788,-0.13689514,0.07655455,0.038057417
326354.828490424,20000000,0.02151218,-0.04226072,-0.04047233,-0.10593626,0.10470373,0.056333672
326354.848490424,40000000,0.01668799,0.020810537,-0.013654947,-0.059484933,0.15361948,0.19053704
326354.868490424,0,-0.051783547,0.03383746,0.0059016943,0.007848423,0.07527988,0.20297304
326354.888490424,20000000,-0.12024729,0.0469056,0.025416195,0.07518178,-0.0030597374,0.21540904
326354.908490424,40000000,-0.04864668,0.032283694,-0.0019429326,0.04197151,-0.0071467776,0.2013537
326354.928490424,0,-0.03010954,0.015389107,0.0016893148,0.043693498,-0.009973652,0.157213
326354.948490424,20000000,-0.011568859,-0.0015042275,0.005320549,0.04541549,-0.012800526,0.1130723
326354.968490424,40000000,-0.0038280338,-0.0033967644,0.0017383695,0.03694617,-0.0076272055,0.07915168
326354.988490424,0,-0.0035120547,-0.0057765767,0.0010173917,0.035147678,-0.00957999,0.058645427
326355.008490424,20000000,-0.003194943,-0.008156516,0.00029563904,0.03334919,-0.011532774,0.038139172
326355.028490424,40000000,-0.0024543852,-0.009087279,0.00018846989,0.036809005,-0.009333616,0.022581346
326355.048490424,0,-0.0040743947,-0.0050274357,0.00085663795,0.032508515,-0.010954016,0.019222608
326355.068490424,20000000,-0.005694166,-0.00096756965,0.0015241504,0.028208021,-0.012574416,0.015863871
326355.088490424,40000000,-0.003407821,-0.0012449622,0.0047237873,0.031435784,-0.017668193,0.0148090385
326355.108490424,0,-0.003425151,-0.0011489466,-0.002474308,0.026320202,-0.01601371,0.016588917
326355.128490424,20000000,-0.0034422278,-0.001052998,-0.009672821,0.02120462,-0.014359226,0.018368796
326355.148490424,40000000,-0.000833869,-0.008295372,-0.0098590255,0.022990618,0.0063654482,0.0039978437
326355.168490424,0,-0.0035914034,-0.009824246,-0.0044466257,0.011784689,0.0015706825,-0.017821336
326355.188490424,20000000,-0.006348878,-0.011353165,0.00096565485,0.0005787583,-0.0032240837,-0.039640516
326355.208490424,40000000,-0.009106427,-0.012882184,0.0063779354,-0.010627172,-0.00801885,-0.061459698
326355.228490424,60000000,-0.024681196,-0.031847626,0.031091154,0.044899352,-0.11064494,-0.12129027
326355.248490424,0,-0.02177395,-0.012983181,0.015004873,0.030187668,-0.09575554,-0.14509793
326355.268490424,20000000,-0.01886627,0.0058838874,-0.0010823607,0.015475984,-0.08086614,-0.16890557
326355.288490424,0,-0.013535753,0.008205466,-0.0014386177,0.026197579,-0.08973689,-0.13222636
326355.308490424,20000000,-0.008207619,0.010536365,-0.0018022656,0.036919173,-0.09860763,-0.095547155
326355.328490424,40000000,-0.002881974,0.012876622,-0.0021731853,0.04764077,-0.10747837,-0.058867954
326355.348490424,0,-0.005259916,0.00064154714,0.0014111996,0.056373626,-0.107278034,-0.06562123
326355.368490424,20000000,-0.0076384246,-0.011589907,0.0049913526,0.06510648,-0.107077695,-0.0723745
326355.388490424,40000000,-0.010017514,-0.023817759,0.008567214,0.07383934,-0.10687735,-0.07912777
326355.408490425,0,-0.000417158,-0.014072258,-0.0014542937,0.058606282,-0.06516393,-0.08412927
326355.428490425,0,-0.0016375333,-0.011551008,0.00010347366,0.061596,-0.07888338,-0.08305149
326355.448490425,20000000,-0.0028585345,-0.009026561,0.0016574264,0.064585716,-0.09260283,-0.0819737
326355.468490425,0,-0.0028429031,-0.0025366805,0.00017642975,0.047094684,-0.083235316,-0.056432717
326355.488490425,20000000,-0.0028275698,0.0039553903,-0.00130862,0.02960365,-0.073867805,-0.03089173
326355.508490425,40000000,-0.0028125048,0.010449659,-0.0027976632,0.012112621,-0.06450029,-0.0053507444
326355.528490425,0,-0.0023732632,0.0073244125,-0.0028721094,-0.00954034,-0.055660147,-0.009355264
326355.548490425,20000000,-0.0019339621,0.004199177,-0.0029474497,-0.031193301,-0.046820007,-0.013359783
326355.568490425,40000000,-0.001494512,0.0010739341,-0.0030234456,-0.05284626,-0.03797987,-0.017364303
326355.588490425,0,-0.0060335696,0.0037858784,-0.0034243464,-0.09353524,-0.004069347,-0.02266753
326355.608490425,20000000,-0.010569006,0.0064983293,-0.0038318038,-0.13422422,0.029841173,-0.027970761
326355.628490425,40000000,-0.015100881,0.009211332,-0.0042458773,-0.1749132,0.0637517,-0.03327399
326355.648490425,0,-0.031167068,-0.015390135,-0.036836505,-0.22833256,0.17493947,0.030677315
326355.668490425,0,0.010728747,-0.00064611435,-0.033763826,-0.17535102,0.19952528,0.025019694
326355.688490425,20000000,0.05262579,0.014103577,-0.030718982,-0.12236948,0.22411108,0.019362073
326355.708490425,40000000,-0.0029104203,-0.014013067,0.02977258,-0.09598658,0.2473543,0.1800484
326355.728490425,0,-0.047933057,-0.040137887,0.030071259,0.023285352,0.16831869,0.15795809
326355.748490425,20000000,-0.0929471,-0.06620437,0.030326903,0.14255726,0.08928306,0.13586777
326355.768490425,0,-0.0644585,-0.04260405,0.022201657,0.119415835,0.048901014,0.12859836
326355.788490425,20000000,-0.035964727,-0.019003324,0.014072657,0.09627441,0.0085189715,0.12132894
326355.808490425,40000000,-0.0074658096,0.004597813,0.0059400797,0.07313299,-0.031863075,0.114059515
326355.848490425,0,-0.0015328377,-0.00502038,-0.008470714,0.047821708,-0.0029719723,0.08324949
326355.868490425,20000000,-3.4615397e-05,-0.009197425,-0.012544811,0.03406684,0.012591152,0.065703794
326355.888490425,0,-0.0019043088,-0.012948021,-0.002323687,0.028315416,0.0138401855,0.03604471
326355.908490425,20000000,-0.0061338097,-0.0089960955,0.001388371,0.020736942,0.009401344,0.021547254
326355.928490425,0,-0.00390698,-0.011022303,0.0006942153,0.016763162,0.0020229681,0.0045290925
326355.948490425,0,-0.0030846894,-0.009225726,8.940697e-06,0.010476202,-0.00042734877,-0.011881847
326355.968490425,0,-0.0031978935,-0.0059004165,-0.0019221306,0.014899764,0.0023611088,-0.008800272
326355.988490425,20000000,-0.003311187,-0.0025750957,-0.003853321,0.019323327,0.005149566,-0.0057186964
326356.008490425,40000000,-0.005355105,-0.0069218837,-0.00049483776,0.028597616,-0.0007925122,0.0016031754
326356.028490425,0,-0.0037426203,-0.006371923,-0.0027278066,0.033576205,0.012894472,0.017881792
326356.048490425,0,-0.004032299,-0.0071426146,-0.0004889369,0.02899268,0.011693452,0.019800533
326356.068490425,0,-0.0043214858,-0.007913057,0.0017491579,0.024409156,0.010492431,0.021719273
326356.088490425,20000000,-0.0029882789,-0.011005852,-0.0017704368,0.007363595,0.018556213,0.007851637
326356.108490425,40000000,-0.0052835494,-0.012296464,0.0017570257,-0.009780066,0.012797875,-0.010574817
326356.128490425,0,-0.013730466,-0.015354399,0.0054249763,-0.021426864,-0.016759297,-0.03516276
326356.148490425,20000000,-0.022176579,-0.018412188,0.009092152,-0.03307366,-0.046316467,-0.059750713
326356.168490425,40000000,0.002585873,-0.03176912,-0.0073087215,-0.03370192,0.017674372,-0.09369412
326356.188490425,0,-0.008997828,-0.0013022646,0.0017108321,-0.019543815,-0.033146877,-0.14344114
326356.208490425,20000000,-0.020580381,0.029165953,0.010730445,-0.0053857137,-0.083968125,-0.19318815
326356.228490425,40000000,-0.0051200986,0.0076967105,0.007584691,0.07918744,-0.0891326,-0.2244095
326356.248490425,0,-0.005156696,0.0068784356,0.0150101185,0.07568825,-0.088425286,-0.15117902
326356.268490425,20000000,-0.0051974356,0.006065309,0.022431076,0.07218906,-0.08771797,-0.07794851
326356.288490425,40000000,0.0013446361,-0.010836508,0.016965747,0.08345148,-0.083144985,-0.058740497
326356.308490425,0,-0.0047516823,0.002462916,0.009211957,0.06781591,-0.051027242,0.008210272
326356.328490425,20000000,-0.0108475685,0.015762683,0.0014544129,0.052180335,-0.018909499,0.07516104
326356.348490425,40000000,-0.008192569,0.008333456,-0.008181632,0.015158024,0.027941987,0.11220026
326356.368490425,0,0.0139783025,0.026923817,-0.00068974495,-0.030539054,0.1174011,0.37919006
326356.388490425,20000000,0.03614834,0.045529056,0.00679332,-0.07623613,0.20686024,0.64617985
326356.408490425,40000000,-0.009705812,-0.07182904,-0.06518483,-0.13163748,0.30535543,0.27241725
326356.428490425,0,-0.008913666,-0.044345208,-0.039980054,-0.112937614,0.2008191,0.20077866
326356.448490425,20000000,-0.008124441,-0.016846787,-0.01478833,-0.094237745,0.09628277,0.12914008
326356.468490425,40000000,-0.015701666,-0.009118266,-0.0067915916,-0.085277535,0.07254087,0.13240804
326356.488490426,0,-0.015111759,-0.009102456,-0.0046453476,-0.05808209,0.04598523,0.08163792
326356.508490426,20000000,-0.014521182,-0.009085275,-0.0024997592,-0.030886646,0.019429589,0.030867796
326356.528490425,40000000,-0.013929948,-0.009066705,-0.00035488605,-0.003691202,-0.00712605,-0.019902326
326356.548490426,60000000,-0.013338029,-0.009046745,0.0017892718,0.023504244,-0.03368169,-0.07067245
326356.568490426,80000000,-0.01274544,-0.009025373,0.003932774,0.05069969,-0.06023733,-0.12144257
326356.588490425,100000000,-0.00449495,0.0008198321,-0.008798301,0.03568548,-0.03034997,-0.13601795
326356.608490426,0,-0.008124605,0.007069908,-0.0021064281,0.0149001535,-0.024095371,-0.108682685
326356.628490426,20000000,-0.011753932,0.013320997,0.0045853853,-0.0058851764,-0.017840773,-0.08134742
326356.648490426,0,-0.012268722,0.015221298,-8.702278e-05,-0.034154173,-0.018029675,-0.039303474
326356.668490426,20000000,-0.0045526177,0.008294314,-0.010242224,-0.05396096,0.0065773595,-0.012586767
326356.688490426,0,-0.0041166693,0.002051279,-0.008202732,-0.051152367,0.026826119,0.0030971766
326356.708490426,0,-0.005842641,0.0013702586,-0.0032115579,-0.044637576,0.025751906,0.010094881
326356.728490426,0,-0.0050647706,-0.0005157143,-0.002195835,-0.022241734,0.011760481,0.003553343
326356.748490426,20000000,-0.004286915,-0.0024016574,-0.001180172,0.00015410595,-0.002230945,-0.002988195
326356.768490426,40000000,-0.0035090894,-0.0042875633,-0.00016462803,0.022549944,-0.016222369,-0.009529732
326356.788490426,0,-0.004766658,0.0025760904,-0.002340436,0.033325747,-0.0148933865,-0.008539098
326356.808490426,20000000,-0.0060243905,0.009439915,-0.00451684,0.04410155,-0.013564404,-0.007548465
326356.828490426,40000000,-0.0070179254,0.0074684843,-0.0005527139,0.041340146,-0.018629659,-0.013902949
326356.848490426,0,-0.0061634183,0.000249058,0.0017254353,0.03475121,-0.020114638,-0.018489439
326356.868490426,20000000,-0.00530909,-0.006970186,0.004003167,0.028162275,-0.021599617,-0.023075927
326356.888490426,40000000,-0.004694119,-0.011663161,0.003300488,0.0324374,-0.02176141,-0.026417332
326356.908490426,0,-0.01805003,0.004842937,0.011193633,0.067666195,-0.1342914,-0.100675665
326356.928490426,20000000,-0.03140734,0.021354616,0.019082725,0.10289499,-0.24682137,-0.174934
326356.948490426,40000000,-0.0025164932,0.051900826,-0.010741234,0.031514168,-0.07273261,0.08252269
326356.968490426,0,0.010161594,0.023656838,-0.024706721,0.048897017,-0.06334909,-0.017762236
326356.988490426,20000000,0.0228381,-0.004579548,-0.03868431,0.066279866,-0.053965572,-0.118047155
326357.008490426,40000000,-0.014512762,-0.0056348667,-0.020472765,0.06996618,-0.069100134,-0.12867801
326357.028490426,0,-0.012131482,-0.0032711178,-0.015192091,0.06303822,-0.06659692,-0.104166254
326357.048490426,20000000,-0.009751752,-0.0009043962,-0.009915292,0.056110263,-0.0640937,-0.07965449
326357.068490426,40000000,-0.007373512,0.0014653094,-0.004642427,0.049182307,-0.06159048,-0.05514273
326357.088490426,0,-0.0061989874,0.0019719526,-0.0013207793,0.030029478,-0.0684106,-0.049788356
326357.108490426,20000000,-0.005024299,0.002480127,0.0019978285,0.010876648,-0.07523072,-0.04443398
326357.128490426,40000000,-0.0038494915,0.002989836,0.0053133965,-0.008276181,-0.08205083,-0.039079607
326357.148490426,0,-0.0053128153,0.013566386,-0.002607584,-0.06339942,-0.053644285,-0.007059645
326357.168490426,20000000,-0.00677526,0.02414361,-0.010531545,-0.11852266,-0.025237743,0.024960317
326357.188490426,40000000,0.0001180172,0.02135342,-0.023917675,-0.21870026,0.09041464,0.09187633
326357.208490426,0,0.00027044117,-0.0023241676,-0.017695129,-0.22340856,0.1336729,0.09469693
326357.228490426,20000000,0.00041648746,-0.025991589,-0.011501372,-0.22811687,0.17693114,0.097517535
326357.248490426,40000000,0.037582725,0.011991382,-0.05036688,-0.19842859,0.39169407,0.14179735
326357.268490426,0,0.024032548,0.0067591593,-0.018370032,-0.13489988,0.3308307,0.18534146
326357.288490426,20000000,0.010483012,0.0015658736,0.013580143,-0.0713712,0.26996732,0.22888559
326357.308490426,40000000,-0.019950971,-0.0054715276,0.04793185,0.036005877,0.043235913,0.17032512
326357.328490426,0,-0.016511247,-0.0049900264,0.03502786,0.04227965,0.018562542,0.1379928
326357.348490426,20000000,-0.013069153,-0.0045084134,0.02212292,0.048553422,-0.00611083,0.10566047
326357.368490426,40000000,-0.009624645,-0.0040266365,0.009217024,0.054827195,-0.0307842,0.073328145
326357.388490426,60000000,-0.00606519,-0.0021380112,-0.0017502904,0.049835563,-0.026499141,0.057155073
326357.408490426,0,-0.0037040263,-0.0051443204,-0.0065701604,0.038711574,-0.013695314,0.044378072
326357.428490426,0,-0.003789857,-0.0068037733,-0.0050194263,0.02493644,0.002942157,0.03139683
326357.448490426,20000000,-0.0050513297,-0.008971199,-0.0006403327,0.021087388,0.00869926,0.020596683
326357.468490426,0,-0.0070672035,-0.0069046095,0.0022270083,0.023262225,0.0018083537,0.017490396
326357.488490426,20000000,-0.0054617524,-0.00438809,-0.0013597608,0.018004548,-0.0013205349,0.012729518
326357.508490426,0,-0.0052928627,-0.002808202,-0.0009827018,0.020441888,-6.52686e-05,0.015932024
326357.528490426,20000000,-0.005123943,-0.0012283139,-0.0006058812,0.02287923,0.0011899978,0.019134529
326357.548490426,40000000,-0.0049548447,0.0003516078,-0.00022929907,0.02531657,0.0024452643,0.022337034
326357.568490426,60000000,-0.005094081,-0.0013400465,-0.0031809807,0.016047763,0.004982733,0.030922953
326357.588490427,0,-0.004912555,-0.008544318,-0.0026355982,0.00082431734,0.0049900617,0.018045196
326357.608490427,0,-0.0047310144,-0.015748512,-0.002090335,-0.014399129,0.00499739,0.0051674396
326357.628490427,0,-0.008888438,-0.019482303,0.0017125607,-0.015037341,-0.010705853,-0.013412064
326357.648490427,20000000,-0.013045549,-0.023215983,0.00551486,-0.015675552,-0.026409093,-0.031991567
326357.668490427,40000000,-0.017202377,-0.026949544,0.009316564,-0.016313765,-0.04211233,-0.05057107
326357.688490427,0,-0.014853671,0.0053668097,-0.0003003478,-0.028555734,-0.056774907,-0.08893512
326357.708490427,20000000,-0.012505263,0.03768447,-0.009917736,-0.040797703,-0.07143748,-0.12729917
326357.728490427,40000000,-0.010157213,0.07000345,-0.019535542,-0.05303967,-0.08610005,-0.16566324
326357.748490427,0,-0.0061027855,0.051278155,-0.009640992,0.0052745566,-0.09062539,-0.12822154
326357.768490427,20000000,-0.0020531863,0.032562964,0.00024443865,0.06358878,-0.09515073,-0.090779826
326357.788490427,40000000,0.0019915998,0.0138578825,0.0101207495,0.12190302,-0.09967607,-0.053338118
326357.808490427,0,0.002300799,0.011279404,0.0068315268,0.10288271,-0.095339544,-0.043436665
326357.828490427,20000000,0.0026091784,0.008705191,0.0035341382,0.0838624,-0.09100302,-0.033535212
326357.848490427,40000000,0.0029166937,0.006135192,0.0002284646,0.06484209,-0.086666495,-0.02363376
326357.868490427,0,0.0018734932,0.0029046312,-0.0054790974,0.01558508,-0.010403506,0.03235379
326357.888490427,20000000,0.0008312613,-0.00032583624,-0.011187196,-0.033671927,0.06585948,0.08834133
326357.908490427,40000000,-0.00021001697,-0.0035562143,-0.016895652,-0.08292893,0.14212245,0.14432888
326357.928490427,0,-0.0011953115,0.016242087,-0.018809676,-0.13974333,0.17532375,0.20648612
326357.948490427,20000000,-0.0021875799,0.036061466,-0.020750165,-0.19655773,0.20852506,0.26864335
326357.968490427,40000000,-0.0031867176,0.05590202,-0.022717297,-0.25337213,0.24172638,0.3308006
326357.988490427,0,0.040568396,0.12160814,-0.052960515,-0.2625126,0.44982043,0.6475237
326358.008490427,0,0.015046015,0.06964402,-0.028600276,-0.19072048,0.23636372,0.4111387
326358.028490427,20000000,-0.010483876,0.017700128,-0.0042595863,-0.11892837,0.022907034,0.1747537
326358.048490427,0,-0.016842902,0.005723655,0.00062960386,-0.10949085,-0.025618251,0.09636587
326358.068490427,20000000,-0.023202524,-0.006252028,0.005515754,-0.100053325,-0.07414353,0.017978042
326358.088490427,40000000,-0.029562682,-0.018226918,0.010398805,-0.0906158,-0.12266882,-0.060409784
326358.108490427,0,-0.021338731,-0.026248567,0.013179839,-0.03743505,-0.110651776,-0.16852018
326358.128490427,20000000,-0.013113588,-0.03426293,0.01595825,0.015745696,-0.098634735,-0.27663055
326358.148490427,40000000,-0.0048873127,-0.04227007,0.018734157,0.06892645,-0.0866177,-0.38474095
326358.168490427,60000000,-0.015817642,0.032873742,0.012127459,0.056640293,-0.07615641,-0.1070911
326358.188490427,0,-0.004140824,0.026222773,-0.008377969,0.0482281,-0.03310942,-0.07717968
326358.208490427,20000000,0.0075346828,0.019573234,-0.02888453,0.03981591,0.009937566,-0.047268253
326358.228490427,40000000,0.0063114464,0.018415488,-0.025376022,0.021706028,0.050185498,-0.0300326
326358.248490427,0,-0.0005593449,0.014956176,-0.009766161,0.009298358,0.03339474,0.004414657
326358.268490427,20000000,-0.0074299723,0.011497006,0.0058430433,-0.0031093117,0.016603986,0.038861915
326358.288490427,40000000,-0.0024053156,0.0032638013,0.00044602156,-0.006010147,0.009568388,0.04183712
326358.308490427,0,-0.0027029365,0.0010678768,0.0017535686,0.009506309,-8.6158514e-05,0.040621888
326358.328490427,20000000,-0.0030002594,-0.0011280403,0.0030609965,0.025022766,-0.009740705,0.039406657
326358.348490427,40000000,-0.006978601,0.00086046755,0.00031977892,0.039384965,-0.014652009,0.044504073
326358.368490427,0,-0.0061270297,-0.0015958175,-0.0036392212,0.03840808,-0.018691443,0.043180197
326358.388490427,20000000,-0.0052745193,-0.0040523224,-0.007599294,0.037431195,-0.022730876,0.041856322
326358.408338333,0,-0.004223641,-0.008041964,-0.009340324,0.033266082,-0.008230426,0.033497393
326358.428338333,20000000,-0.0047088712,-0.009351343,-0.006998062,0.021748416,-0.00435688,0.009904763
326358.448338333,40000000,-0.005194053,-0.0106607005,-0.004656017,0.01023075,-0.00048333383,-0.0136878695
326358.468338333,0,-0.0062393397,-0.014982477,-0.0021708608,0.0045601004,-0.009876284,-0.03966096
326358.488338333,20000000,-0.0072844326,-0.019304022,0.0003142357,-0.0011105491,-0.019269235,-0.06563406
326358.508338333,40000000,-0.007845148,-0.022910401,0.005189419,0.019938096,-0.028852418,-0.077360906
326358.528338333,0,-0.008768827,-0.045925215,0.007986248,0.09034409,-0.060418475,-0.2306942
326358.548338333,20000000,-0.009693354,-0.06893299,0.010779321,0.16075008,-0.09198453,-0.38402748
326358.568338333,40000000,-0.00023932755,0.010408796,-0.0053935647,0.06360985,-0.10764426,-0.24159962
326358.588338334,0,0.003633827,0.0105744,-0.014206052,0.026687894,-0.10659683,-0.21672827
326358.608338334,20000000,0.007508099,0.010752816,-0.023032427,-0.010234062,-0.105549395,-0.19185692
326358.628338334,40000000,-0.0027507246,-0.0066417567,-0.009788871,-0.0147816185,-0.121685185,-0.1860064
326358.648338334,0,-0.0062160194,0.002700016,-0.011300862,-0.015936395,-0.09650711,-0.1477583
326358.668338334,20000000,-0.0096784085,0.012048885,-0.012818038,-0.017091174,-0.07132903,-0.109510206
326358.688338334,0,-0.008525997,0.014360897,-0.020852387,-0.010363361,-0.028511815,-0.05383149
326358.708338334,0,-0.0086667985,0.015476085,-0.015313745,0.011237197,0.013186909,-0.005369805
326358.728338334,20000000,-0.00880751,0.016591266,-0.009775579,0.032837756,0.054885637,0.043091882
326358.748338334,40000000,-0.006609142,0.012009565,-0.0039572716,0.034972895,0.07522878,0.067293905
326358.768338334,0,-0.005032018,0.0044140667,-0.002506256,0.021318924,0.06758771,0.049286764
326358.788338334,20000000,-0.0034540743,-0.0031800196,-0.0010569096,0.0076649506,0.059946645,0.031279624
326358.808338334,40000000,-0.0077819973,-0.012162201,0.008323431,0.026211089,0.01061492,0.029938038
326358.828338334,0,-0.0019955933,-0.012451556,-0.0039295554,0.021133477,0.018388364,0.016845446
326358.848338334,20000000,0.0037906915,-0.01274097,-0.01618284,0.016055865,0.026161809,0.0037528519
326358.868338334,40000000,-0.0011695623,-0.011180017,-0.008110642,0.027158204,0.015446804,0.0006525561
326358.888338334,0,-0.003562495,-0.010675367,-0.002175033,0.040645383,-0.005208753,0.0017219285
326358.908338334,20000000,-0.005955428,-0.01017068,0.0037594438,0.05413256,-0.025864307,0.0027913006
326358.928338334,40000000,-0.0015918612,-0.01750544,0.0012574196,0.041964315,-0.032166265,-0.023362
326358.948338334,0,-0.0036943257,-0.012182672,0.0006889105,0.028726157,-0.010849843,-0.016204026
326358.968338334,20000000,-0.005797088,-0.00685947,0.00011962652,0.015488001,0.010466576,-0.009046052
326358.988338334,40000000,-0.007900253,-0.0015358701,-0.0004503131,0.0022498434,0.031783,-0.0018880777
326359.008338334,0,-0.01180321,0.008045275,-0.007560432,-0.04398104,0.1088724,0.05519717
326359.028338334,0,-0.011257544,0.0046513677,-0.009875953,-0.08470272,0.19333622,0.11986561
326359.048338334,20000000,0.0006939471,0.00905057,-0.021952212,-0.11029714,0.22514151,0.13152924
326359.068338334,0,-0.0009789169,0.009385817,-0.009560049,-0.11487365,0.1955932,0.21915996
326359.088338334,0,-0.0026542693,0.009739496,0.0028128028,-0.11945016,0.16604488,0.30679068
326359.108338334,20000000,0.012363479,-0.00046874955,-0.028740704,-0.13394934,0.2627775,0.34898502
326359.128338334,0,0.013244405,0.0032936558,-0.015769362,-0.051597595,0.21344902,0.38522738
326359.148338334,20000000,0.014122441,0.0070713013,-0.0028079748,0.030754149,0.16412053,0.42146975
326359.168338334,0,-0.006356761,-0.02943433,0.068602204,0.061309878,0.023275241,0.20884924
326359.188338334,0,-0.006393239,-0.0477112,0.043308616,0.05784312,-0.0052265488,0.13307077
326359.208338334,20000000,-0.0064301193,-0.06598888,0.018014312,0.054376356,-0.03372834,0.05729229
326359.228338334,40000000,0.008352965,-0.05471459,0.0020885468,0.06499718,-0.034746975,-0.07524834
326359.248338334,0,-0.005732879,-0.03386776,0.009467423,0.06413839,-0.057099767,-0.116769046
326359.268338334,20000000,-0.019818842,-0.013018392,0.016845584,0.0632796,-0.07945256,-0.15828976
326359.288338334,40000000,-0.005229667,0.0108866915,-0.0065151453,0.025258102,-0.034297362,-0.089553826
326359.308338334,0,-0.0011413544,0.014409527,-0.010527492,0.014726205,-0.01189176,-0.055731144
326359.328338334,20000000,0.0029468834,0.017932765,-0.014539957,0.00419431,0.010513842,-0.021908466
326359.348338334,0,-0.00048661232,0.014196515,-0.009766638,0.007255515,0.0016704965,-0.004280923
326359.368338334,20000000,-0.0039200336,0.01046031,-0.004993379,0.01031672,-0.00717285,0.013346618
326359.388338334,40000000,-0.00735344,0.0067241043,-0.00022017956,0.013377925,-0.016016196,0.030974159
326359.408338334,60000000,-0.010304645,0.005450487,-6.5386295e-05,0.02220564,-0.020940349,0.05923467
326359.428338334,0,-0.007610649,0.002053883,-0.0018267035,0.032511212,-0.01682019,0.055591445
326359.448338334,20000000,-0.0049153566,-0.0013428628,-0.0035889149,0.04281678,-0.012700032,0.051948223
326359.468338334,40000000,-0.0030876696,-0.0028437227,-0.0058847666,0.031548616,-0.013755264,0.030351462
326359.488338334,0,-0.0030911118,-0.006492026,-0.005720079,0.017377824,-0.013497723,0.008375403
326359.508338334,20000000,-0.0030945241,-0.010140356,-0.005555749,0.0032070344,-0.013240183,-0.013600657
326359.528338334,40000000,-0.008010015,-0.01312954,-0.00017917156,0.0076293345,-0.028702877,-0.042047404
326359.548338334,0,-0.006427452,-0.011412617,-0.0024160743,0.014855107,-0.042142693,-0.061002806
326359.568338334,20000000,-0.0048450083,-0.009694647,-0.004653752,0.02208088,-0.05558251,-0.0799582
326359.588338334,40000000,-0.0070599467,-0.016021565,0.009506345,0.106673926,-0.15854344,-0.18776688
326359.608338334,0,0.010303736,0.011630569,0.007499397,0.12007852,-0.03814186,0.0010114461
326359.628338334,0,0.0084670335,-0.025608048,0.001827836,0.11592462,-0.069594905,-0.034269374
326359.648338335,20000000,0.011212692,-0.027352914,-0.011935592,0.07412924,-0.03746117,-0.07595877
326359.668338335,0,-0.0137462765,-0.021803726,-0.0038234591,0.09506233,-0.0076571796,-0.101315565
326359.688338335,0,-0.009913072,0.008185871,-0.010518074,0.09078572,0.00029478967,-0.048209794
326359.708338335,0,-0.0059143305,-0.00023085251,-0.0131405,0.08542429,0.0056513944,-0.013986867
326359.728338335,20000000,-0.0019153506,-0.008647475,-0.015764832,0.080062866,0.011007999,0.02023606
326359.748338335,40000000,-0.00035701692,-0.0046797954,-0.014380276,0.062588714,0.029180203,0.018540785
326359.768338335,0,-0.0034195632,-0.009532493,0.0035761595,0.037997372,0.01435894,0.0140969455
326359.788338335,20000000,-0.00709565,-0.014697062,0.009141445,0.0053428374,0.010193586,-0.0030507445
326359.808338335,0,-0.0073423535,-0.009187911,0.006540239,-0.037986215,0.012994565,-0.020437213
326359.828338335,20000000,-0.008604184,-0.007735539,0.008131862,-0.06618423,-0.008155407,-0.028764132
326359.848338335,0,-0.004954666,-0.004442841,0.003993511,-0.06289232,-0.006311493,-0.028767383
326359.868338335,0,-0.0055078417,-0.0008791983,-0.00058603287,-0.054625593,-0.010371549,-0.027411466
326359.888338335,0,-0.0049410462,0.007862508,-0.008776486,-0.06502272,0.025762765,-0.0052314755
326359.908338335,0,-0.0077893585,0.008529384,-0.005689442,-0.087372005,0.06447466,0.055052154
326359.928338335,20000000,-0.004110098,0.00831686,-0.013505995,-0.13234705,0.12436104,0.143444
326359.948338335,0,0.031032339,0.065868065,-0.043955505,-0.21300918,0.2972336,0.47783202
326359.968338335,0,-0.01007463,-0.036123272,-0.023132503,-0.2011541,0.26651132,0.23482598
326360.008338335,0,0.016565591,0.01946048,-0.029152215,-0.17147276,0.066782564,0.100527965
326360.028338335,20000000,0.0001823008,-0.0098079555,0.0008034706,-0.08181353,-0.038525432,0.095928304
326360.048338335,40000000,0.002912268,-0.054789834,-0.0064511895,-0.015494078,-0.028986907,0.0009158477
326360.068338335,0,-0.00858137,-0.043856543,-0.0041062236,0.0058534946,-0.051416766,-0.04226972
326360.088338335,20000000,-0.020075351,-0.03292069,-0.001763463,0.027201066,-0.07384662,-0.08545528
326360.108338335,40000000,-0.0315696,-0.021982271,0.00057679415,0.04854864,-0.096276484,-0.12864086
326360.128338335,60000000,-0.0007942766,-0.03818872,-0.0078213215,0.09348828,-0.054699235,-0.13851038
326360.148338335,0,-0.012910292,-0.0093507655,0.01657486,0.0665059,-0.04891116,-0.09814298
326360.168338335,0,-0.0016056448,0.0019260086,-0.0096465945,0.024410442,0.013456792,-0.06937255
326360.188338335,0,-0.006982252,0.0027621537,0.0008687973,0.01346783,0.005478801,-0.04758423
326360.208338335,20000000,-0.01235877,0.0035980195,0.01138407,0.0025252188,-0.0024991892,-0.025795905
326360.228338335,0,-0.009338781,0.0018304847,0.00092339516,-0.019917589,-0.005566458,-0.005276827
326360.248338335,0,-0.0061569363,-0.0012838058,-0.0033485293,-0.02376184,0.0058827894,-0.009746653
326360.268338335,20000000,-0.0029750317,-0.0043981113,-0.007620752,-0.027606094,0.017332036,-0.014216479
326360.288338335,40000000,-0.0070949793,0.002089873,-0.0029935837,-0.030965827,0.014109529,-0.009296231
326360.308338335,0,-0.006441802,-0.0016755015,-0.00027549267,-0.017251365,0.005139916,-0.012682533
326360.328338335,20000000,-0.0057884157,-0.0054408833,0.0024423003,-0.0035369042,-0.0038296953,-0.016068835
326360.368338335,0,-0.0050400794,-0.0036006197,-0.0016752481,-0.009284451,-0.010046457,-0.02993393
326360.388338335,20000000,-0.004730627,-0.0047953688,-0.006082773,-0.017304312,-0.013591424,-0.039786145
326360.428338335,0,-0.0082087815,-0.0038175844,-0.0034822226,-0.0167665,-0.02478947,-0.04378673
326360.448338335,0,-0.0025062412,-0.008278262,-0.012013018,-0.01652197,-0.018525716,-0.05849625
326360.468338335,0,-0.013682276,0.0054209195,-0.0127827525,0.0075857025,-0.06009782,-0.03800139
326360.488338335,20000000,-0.024859935,0.019126475,-0.013557076,0.031693377,-0.10166994,-0.017506527
326360.508338335,40000000,-0.03603919,0.032838415,-0.01433605,0.05580105,-0.14324205,0.0029883329
326360.528338335,0,-0.0066754073,-0.009892151,-0.005625725,0.030929446,-0.07963236,-0.03834276
326360.548338335,0,-0.011851817,-0.003510423,-0.0002949834,0.05911254,-0.053648643,-0.035019092
326360.568338335,20000000,-0.017029658,0.0028703436,0.005034268,0.08729564,-0.02766493,-0.03169543
326360.588338335,40000000,-0.022208959,0.009250142,0.010362029,0.11547873,-0.0016812161,-0.028371762
326360.608338335,0,-0.014124572,0.0016399957,0.011444986,0.08006379,-0.001974614,-0.011279363
326360.628338335,20000000,-0.0060398728,-0.005970083,0.012526572,0.044648845,-0.0022680121,0.005813036
326360.648338335,40000000,0.0020450652,-0.0135800615,0.013606906,0.009233899,-0.00256141,0.022905435
326360.668338335,0,0.0015110373,-0.0131444,0.006940067,-0.022460066,-0.01734845,0.0006619431
326360.688338335,20000000,0.0009771585,-0.012708634,0.00027245283,-0.05415404,-0.03213549,-0.021581553
326360.708338335,40000000,-0.002835542,-0.002154246,0.0010333657,-0.06371781,-0.011130301,-0.0012935717
326360.728338336,0,-0.012271002,-0.0007223636,0.0070385933,-0.07092822,-0.00090957806,0.028057648
326360.748338336,20000000,-0.021711335,0.00072487816,0.013030171,-0.078138635,0.009311144,0.057408866
326360.768338336,40000000,-0.031156406,0.002187539,0.0190081,-0.085349046,0.019531868,0.08676009
326360.788338336,60000000,-0.040606126,0.003665693,0.02497232,-0.09255946,0.029752592,0.11611131
326360.808338336,80000000,-0.05006036,0.0051593482,0.030923009,-0.099769875,0.039973315,0.14546253
326360.828338336,0,-0.037820995,-0.0015308931,0.024368167,-0.09896368,0.0136872865,0.12129123
326360.848338336,20000000,-0.025584713,-0.008219823,0.017810881,-0.09815748,-0.012598738,0.09711993
326360.868338336,40000000,-0.013351575,-0.014907394,0.011251271,-0.09735128,-0.038884766,0.07294863
326360.888338336,60000000,-0.012889609,-0.033556323,0.00723511,-0.04519801,-0.06302074,0.043714467
326360.908338336,0,-0.0070448816,-0.022345472,0.0025961995,0.0068322457,-0.06709649,0.008586712
326360.928338336,0,-0.0014238954,-0.039347127,-0.002824664,0.050843515,-0.07974566,-0.0950344
326360.948338336,20000000,-0.0027227402,-0.013217792,-0.019800425,0.035102848,-0.037159722,-0.10660298
326360.968338336,0,-0.0021808594,-0.0052666552,-0.018751144,0.032613583,-0.0079795085,-0.08994742
326360.988338336,20000000,-0.0016402453,0.0026859045,-0.017703116,0.03012432,0.021200709,-0.07329185
326361.008338336,0,-0.0018845052,0.0016530305,-0.013043165,0.028173123,0.014538697,-0.04983437
326361.028338336,20000000,-0.0021291077,0.00062005967,-0.0083835125,0.026221925,0.007876686,-0.02637689
326361.048338336,40000000,-0.002373919,-0.0004130304,-0.003724277,0.024270728,0.0012146742,-0.0029194094
326361.068338336,0,-0.003205657,-0.0011437908,-0.0038454533,0.023480954,-0.0016990134,0.0017179018
326361.088338336,20000000,-0.0040373355,-0.0018745363,-0.003966868,0.022691179,-0.004612701,0.006355213
326361.128338336,0,-0.00581415,-0.004228033,-0.002515018,0.024321053,-0.007894403,0.0069299443
326361.148338336,20000000,-0.006759286,-0.0058507696,-0.0009416342,0.0267407,-0.008262418,0.0028673657
326361.168338336,40000000,-0.007704392,-0.007473491,0.0006314516,0.029160349,-0.008630433,-0.0011952128
326361.208338336,0,-0.0058422834,-0.009745367,5.185604e-06,0.011078471,-0.009526117,-0.034428626
326361.248338336,0,-0.003832236,-0.010278501,-0.0018898249,-0.0010846136,-0.00036851037,-0.07730904
326361.268338336,20000000,-0.0027938336,-0.010917138,-0.00331074,0.0022555515,0.0035603754,-0.099063724
326361.288338336,40000000,-0.0017544329,-0.011555474,-0.0047317743,0.0055957166,0.007489261,-0.1208184
326361.308338336,0,-0.009461477,-0.0251531,-0.00081020594,0.063579604,-0.08259726,-0.29647714
326361.328338336,0,-0.0010660738,-0.02007623,0.0113735795,0.08642714,-0.080559336,-0.23320754
326361.348338336,20000000,0.0073253065,-0.014990233,0.023550868,0.10927467,-0.078521416,-0.16993794
326361.388338336,0,0.012542069,0.011298306,0.01718539,0.05725591,-0.042619724,-0.030850492
326361.408338336,20000000,0.022416234,0.021768447,0.017927825,0.06493104,-0.024893677,0.02433952
326361.428338336,40000000,0.0069516003,0.0150077045,0.008468211,0.057803284,-0.018152688,0.05023504
326361.448338336,0,-0.0032142848,0.012795143,0.0089197755,0.035160676,-0.03477899,0.088496506
326361.468338336,20000000,-0.013378352,0.01058194,0.009370089,0.012518063,-0.051405296,0.12675798
326361.488338336,40000000,-0.015293792,-0.010416161,0.007201493,-0.023739722,-0.06993018,0.12590827
326361.508338336,0,-0.015408054,-0.024140812,0.0018912554,-0.043805808,-0.06570662,0.087055795
326361.528338336,20000000,-0.0155233,-0.03786817,-0.0034222603,-0.06387189,-0.06148305,0.04820332
326361.548338336,40000000,-0.01907733,-0.03312922,-0.008729041,-0.08117625,-0.029664524,-0.0014723465
326361.568338336,0,-0.023939222,-0.012129471,-0.008563876,-0.122258335,-0.001053011,-0.03343388
326361.588338336,0,-0.022070244,-0.00057817996,-0.01736635,-0.16023844,0.033435598,-0.052384116
326361.608338336,20000000,0.0024061054,0.037681736,-0.03844452,-0.20848238,0.15262935,0.088620506
326361.628338336,0,-0.010493964,0.035628542,-0.01082629,-0.14144689,0.1600829,0.08754329
326361.648338336,20000000,-0.023395121,0.033588074,0.016759574,-0.0744114,0.16753647,0.08646607
326361.668338336,40000000,-0.01799339,0.02348876,0.027375221,-0.034216378,0.10384093,0.023391321
326361.688338336,0,-0.011359006,0.007574022,0.019049346,-0.01672844,0.043567587,-0.01827053
326361.708338336,20000000,-0.0047238916,-0.008340903,0.010722578,0.0007594973,-0.016705755,-0.059932377
326361.728338336,0,-0.0076887608,-0.041258525,0.0023729801,0.08625513,-0.068603426,-0.06653933
326361.748338336,0,-0.007179633,-0.025581222,-0.005944133,0.12535138,-0.06959521,-0.05102045
326361.768338336,20000000,-0.006674975,-0.009899259,-0.014270961,0.16444764,-0.070586994,-0.03550157
326361.788338336,40000000,-0.0040426105,-0.022026464,-0.008531809,0.13760437,-0.03871314,-0.0039496757
326361.808338337,0,0.008031085,-0.038068507,-0.01619953,0.09437095,0.03060593,-0.0039490443
326361.828338337,20000000,0.0063974857,-0.045649525,-0.002765894,0.06786986,0.063130386,0.0030077673
326361.848338337,0,0.0046520233,-0.03955753,0.0033184886,0.046362966,0.04891526,0.0020172368
326361.868338337,20000000,0.0029067546,-0.03346557,0.009401381,0.024856078,0.034700133,0.0010267063
326361.888338337,40000000,0.0011616796,-0.02737366,0.015482783,0.0033491869,0.020485003,3.617583e-05
326361.908338337,0,-0.0011893958,-0.018933196,0.016110063,-0.011083391,0.0054144217,-0.0036188944
326361.928338337,20000000,-0.00340724,-0.0030625165,0.013621032,-0.024457222,-0.010461059,0.0072717676
326361.948338337,0,-0.0067692846,0.0042108335,0.011349857,-0.023149526,-0.022713453,0.028010674
326361.968338337,0,-0.009196475,0.012450226,0.004966378,-0.031331304,-0.030806331,0.05349306
326361.988338337,0,-0.00823611,0.013653256,-0.0024490356,-0.0384708,-0.025237305,0.07126386
326362.008338337,0,-0.008620381,0.010361299,-0.003889978,-0.046902005,-0.016461667,0.07682483
326362.028338337,0,-0.009749353,0.004682474,-0.0033391118,-0.049025234,-0.013770327,0.05790306
326362.048338337,20000000,-0.014086708,0.004159473,0.0018833876,-0.050975244,-0.030308824,0.033378914
326362.068338337,0,-0.012736127,0.0030844882,-0.0017286539,-0.0535881,-0.033922818,0.0069181584
326362.088338337,0,-0.010126904,0.0006104857,-0.005654335,-0.044980943,-0.031040777,-0.029480089
326362.108338337,20000000,-0.0075170696,-0.0018631294,-0.009581387,-0.036373787,-0.028158737,-0.06587833
326362.128338337,40000000,-0.007796958,-0.005822297,-0.0064131618,-0.005917318,-0.03347045,-0.098863855
326362.148338337,0,-0.011032954,-0.03257207,-0.0027178526,0.07465654,-0.09602513,-0.2411777
326362.168338337,20000000,-0.014268175,-0.059315547,0.0009750724,0.1552304,-0.15857983,-0.38349155
326362.188338337,0,-0.018215165,0.010145575,0.010649204,0.13426693,-0.17076865,-0.16700858
326362.208338337,20000000,0.0064264536,-0.0045799017,-0.02322632,0.15685242,-0.09149098,-0.092437975
326362.228338337,0,-0.00757125,0.032648943,0.0008482337,0.102753066,-0.051586855,-0.041943785
326362.248338337,20000000,-0.011439785,0.0237679,-0.008998632,0.053362954,0.0089270435,-0.023160687
326362.268338337,0,-0.02355045,0.013308536,0.0062524676,0.053196788,-0.025257695,0.015187131
326362.288338337,0,-0.0136490315,0.000708472,-0.0013366342,0.04458149,-0.036073912,0.028593026
326362.308338337,0,-0.0023600012,-0.017338946,-0.010596335,0.051483557,-0.005673548,0.0073054526
326362.328338337,20000000,-0.009579569,-0.011763144,0.0039829016,0.05037971,-0.018098176,-0.012280522
326362.348338337,0,-0.010001674,0.010881886,-0.00031232834,-0.012655042,-0.020996578,-0.021862715
326362.368338337,0,-0.0073067397,0.0043359324,-0.00089401007,-0.06116569,0.009737346,-0.029810129
326362.388338337,20000000,-0.0072917044,-0.005877711,0.0045520067,-0.06162256,0.023431314,-0.025033534
326362.408338337,0,-0.0059072524,-0.003348004,-0.0015580654,-0.047078215,0.04068,-0.008504501
326362.428338337,0,-0.0012588203,-0.0012866445,-0.01576382,-0.06956997,0.10856416,0.06255236
326362.448338337,20000000,0.0033869892,0.00078428537,-0.029977858,-0.09206173,0.17644832,0.13360924
326362.468338337,40000000,0.008030251,0.0028648153,-0.044200122,-0.11455348,0.24433249,0.20466611
326362.508338337,0,-0.0035313219,-0.014008839,-0.0023311377,-0.064989895,0.07703534,0.18487951
326362.528338337,20000000,-0.011057228,-0.0356578,0.0056111217,-0.06537258,-0.022621855,0.06308268
326362.548338337,0,-0.0024054945,-0.03794898,0.009878576,-0.06571699,-0.07145998,-0.034824774
326362.568338337,20000000,-0.011178091,-0.05174089,0.012600005,0.031429403,-0.09782555,-0.06185911
326362.588338337,0,-0.00059217215,-0.033539306,0.01119709,0.11940514,-0.090817526,-0.10918526
326362.608338337,0,-0.01258716,-0.0034317598,-0.00783354,0.08899777,-0.08287343,-0.12172172
326362.628338337,0,-0.010054573,0.007275626,-0.010436714,0.08190547,-0.043129317,-0.04199648
326362.648338337,0,-0.012089089,0.0065372065,-0.006589234,0.058161266,-0.016322983,0.012096819
326362.668338337,0,-0.013295442,0.010287631,-0.008519173,0.010572027,0.0041359793,0.06413657
326362.688338337,20000000,-0.01181896,-0.0047339946,-0.0037514567,-0.0057647284,0.010393276,0.074288614
326362.708338337,0,-0.010532007,-0.0070345476,-0.0033766627,-0.014787617,0.0013595009,0.08258701
326362.728338337,0,-0.008937597,-0.011551518,-0.004073918,-0.014297406,0.009033395,0.069669135
326362.748338337,20000000,-0.009779841,-0.014376536,-0.0018760562,-0.012961513,0.0073974347,0.04422781
326362.768338337,0,-0.0136151165,-0.015443917,0.0032981634,-0.0060531474,-0.0012862235,0.02625171
326362.788338337,20000000,-0.013197839,-0.016544584,-0.0035604835,-0.0025159025,-0.0033840938,0.007192405
326362.808338337,0,-0.0066415817,-0.016967438,-0.011392117,0.0025570274,0.008679524,-0.008738754
326362.828338337,0,-0.001771912,-0.015174545,-0.016200244,0.0017883361,0.03875538,-0.03205368
326362.848338337,0,-0.0051826388,-0.007851776,-0.0061121583,0.017119613,0.047727555,-0.040321022
326362.868338338,20000000,-0.010140836,0.0029244572,0.0032166243,0.012966335,0.032764703,-0.02658892
326362.888338338,0,-0.005646065,-0.002068974,0.006006837,0.01449147,0.030371219,-0.027157918
326362.908338338,20000000,-0.0059616864,-0.0010390282,0.0086224675,0.011660823,0.010179175,-0.026685286
326362.928338338,0,-0.007563144,-0.0010663867,0.0067560077,0.0020358404,-0.0045814337,-0.029969463
326362.948338338,20000000,-0.0064499527,0.0005060062,0.0022281408,-0.013124857,-0.007880656,-0.028547822
326362.968338338,0,-0.007822663,0.00247287,0.0027951002,-0.013240677,-0.009936441,-0.016575444
326362.988338338,0,-0.0047043413,-0.0031523854,-0.004793644,-0.020241605,-0.0023640525,-0.02741985
326363.008338338,0,-0.009519219,-0.0018939413,-0.0009973645,-0.017577797,-0.03139385,-0.024957627
326363.028338338,0,-0.0112743825,-0.030072186,-0.00744313,0.004915651,-0.13083203,-0.2664366
326363.048338338,20000000,-0.013895288,0.004231788,0.007883251,0.06477769,-0.15647164,-0.1755484
326363.068338338,0,-0.00092314184,0.023691196,-0.013952553,0.017737541,-0.01827079,-0.047508106
326363.088338338,20000000,0.012047395,0.043151494,-0.035790384,-0.0293026,0.119930044,0.08053219
326363.108338338,0,0.011861458,0.03138885,-0.033376575,-0.08191208,0.21120209,0.17234683
326363.128338338,20000000,-0.034939364,-0.03604779,0.038125336,0.066705905,0.004530236,0.008798197
326363.148338338,0,-0.011529714,-0.019796818,0.009451091,0.10661334,-0.04940609,-0.113625854
326363.168338338,20000000,0.0013025701,-0.0070882477,0.0026991367,0.08049244,-0.03543917,-0.1368518
326363.188289375,0,0.001817767,-0.00718184,0.018124402,0.05103308,-0.05621431,-0.091482386
326363.208289375,20000000,-0.000784412,-0.00459351,0.01171881,0.026688853,-0.043719403,-0.0681021
326363.228289375,40000000,-0.003386423,-0.0020043068,0.0053126216,0.0023446232,-0.0312245,-0.044721816
326363.248289375,0,-0.0057016313,-0.0025978014,0.0013613701,-0.0168575,-0.015263183,-0.021910384
326363.268289375,0,-0.009617448,0.0002593994,0.0031129122,-0.030705638,-0.011161265,0.013865374
326363.288289375,20000000,-0.0075804144,0.0029695034,-0.0073168874,-0.057481915,0.01165614,0.06392478
326363.308289375,0,-0.0010859817,0.009212263,-0.01614356,-0.08651002,0.06028858,0.1482119
326363.328289375,20000000,0.0035295933,0.0068818703,-0.026822507,-0.102543056,0.13654673,0.1957674
326363.348289375,0,0.0011235029,0.0009231791,-0.017627418,-0.08391599,0.11866785,0.16065001
326363.368289375,20000000,-0.0012848228,-0.0050275065,-0.008438945,-0.06528893,0.100788966,0.12553263
326363.388289375,40000000,-0.006670505,-0.008392289,0.0037781596,-0.047470115,0.08084735,0.11131662
326363.408289375,0,-0.01076144,-0.01907723,0.016831696,-0.04412169,0.014895186,0.056498077
326363.428289375,0,-0.012260199,-0.020566776,0.015207469,-0.035154305,-0.021968648,0.033157296
326363.448289375,20000000,-0.013758615,-0.02205627,0.0135810375,-0.026186919,-0.05883248,0.009816516
326363.468289375,40000000,-0.007135421,-0.05158015,0.007921934,0.069707006,-0.08257228,-0.12771134
326363.488289375,0,-0.008820221,-0.01665033,-0.018496156,0.036760457,-0.06928665,-0.17844914
326363.508289375,0,-0.011219516,0.0103458315,-0.013556242,0.02744106,-0.038611893,-0.11065636
326363.528289375,0,-0.009743661,0.011798322,-0.011822939,0.010248756,-0.013014119,-0.06736105
326363.548289375,0,-0.008731276,0.012751937,-0.009088457,-0.009125708,0.008917043,-0.026851252
326363.568289375,20000000,-0.011013851,0.010926865,-0.002804339,-0.02275283,0.010235194,0.00901131
326363.588289375,0,-0.010939479,0.007724479,0.0022723675,-0.019127844,-0.004411691,0.03150735
326363.608289375,0,-0.008149266,0.0029505491,0.0020925403,-0.0059771854,-0.016504359,0.037619147
326363.628289375,0,-0.0058226734,-0.0031771287,-0.0018773079,0.008319256,-0.019918319,0.02919858
326363.648289375,0,-0.00559099,-0.005067479,-0.0028403997,0.017482227,-0.021008551,0.019019064
326363.668289375,20000000,-0.0053590983,-0.0069579594,-0.0038039684,0.026645197,-0.022098783,0.008839545
326363.688289375,40000000,-0.0048939884,-0.007102914,-0.004994869,0.03110161,-0.020268131,0.006607325
326363.708289376,0,-0.0071864277,-0.0051068887,-0.0040400624,0.027521443,-0.019252796,0.011054789
326363.728289376,0,-0.0075897574,-0.005666431,-0.003060639,0.021659572,-0.013263128,0.014446214
326363.748289376,20000000,-0.009494945,-0.006993562,0.0019222498,0.01512381,-0.015942784,0.021937087
326363.768289376,0,-0.011516482,-0.008419681,0.0059400797,0.0062891888,-0.017605718,0.03147704
326363.788289376,20000000,-0.013165519,-0.0075199082,0.004671991,-0.0115781585,-0.02782334,0.03631521
326363.808289376,0,-0.012599096,-0.009230085,-0.00040620565,-0.03174513,-0.033892326,0.030913357
326363.828289376,0,-0.008385509,-0.016334072,-0.0064989924,-0.04548431,-0.02630778,0.007883783
326363.848289376,20000000,-0.008852795,-0.015208669,-0.0055624843,-0.047255125,-0.012590188,-0.005021954
326363.868289376,0,-0.011654481,-0.012172915,0.00084269047,-0.03937791,-0.020739075,-0.023961464
326363.888289376,0,-0.012745172,-0.013067104,0.002406299,-0.029653635,-0.048486892,-0.052668273
326363.908289376,0,-0.0154467225,-0.029013343,0.00018519163,0.016297638,-0.12365636,-0.19699985
326363.928289376,20000000,-0.02292104,-0.00065906346,0.01065886,0.054076623,-0.19979191,-0.23053136
326363.948289376,0,-0.01879701,-0.0027500466,0.005818069,0.03893297,-0.14866504,-0.17547402
326363.968289376,20000000,-0.014673054,-0.0048380867,0.00097358227,0.02378932,-0.097538166,-0.12041667
326363.988289376,40000000,-0.010549217,-0.006923184,-0.0038747191,0.0086456705,-0.046411294,-0.06535932
326364.008289376,60000000,-0.023313254,0.00060355663,-0.027065635,-0.009192241,-0.015894042,-0.021102887
326364.028289376,0,-0.01800263,0.020031534,-0.024015546,-0.042087607,0.026871627,0.06667878
326364.048289376,0,-0.014663011,0.011685178,-0.012847483,-0.039578162,0.03231125,0.115315676
326364.068289376,20000000,-0.0066471547,-0.002306074,-0.012501419,-0.031568155,0.04909908,0.12178544
326364.088289376,0,-0.0062753856,-0.009343471,-0.0057771206,-0.03208594,0.04281664,0.112767845
326364.108289376,20000000,-0.00590457,-0.016377952,0.0009456277,-0.032603726,0.0365342,0.10375025
326364.128289376,0,-0.0065215677,-0.021984361,0.0022304654,-0.015736481,0.01940339,0.070509665
326364.148289376,20000000,-0.0051478744,-0.018249273,0.00091677904,-0.0025047297,0.013387543,0.049318556
326364.168289376,0,-0.002667755,-0.013369128,-0.0042966604,0.0005043547,0.020968234,0.033527788
326364.188289376,0,-0.002024874,-0.008699395,-0.0028751493,0.0007018588,0.032375216,0.042153135
326364.208289376,0,-0.0008057207,-0.007303387,-0.004856944,-0.0027987505,0.049802393,0.061049193
326364.228289376,20000000,-0.0025895834,-0.0088532455,-0.00044625998,-0.00083225244,0.055079553,0.07029171
326364.248289376,0,-0.004172653,-0.0102292225,0.00067156553,0.0027004615,0.032919817,0.061332114
326364.268289376,20000000,-0.0057551414,-0.011604331,0.0017889142,0.0062331753,0.010760078,0.05237251
326364.288289376,40000000,-0.007358238,-0.010798521,0.0028708577,0.004362051,0.003953651,0.037740186
326364.308289376,0,-0.011906385,-0.012042895,0.0036304593,0.0018738706,-0.017808408,0.021389956
326364.328289376,20000000,-0.01242353,-0.014259569,-0.0018321276,0.0031959938,-0.040444855,-0.0025280453
326364.348289376,0,-0.0080536455,-0.018938705,-0.0097562075,0.00038799038,-0.035560757,-0.039644964
326364.368289376,0,-0.0073510557,-0.017858677,-0.0066649914,-4.1227497e-05,-0.03115079,-0.06629603
326364.388289376,20000000,-0.007651821,-0.012940966,-0.0017248392,-0.019029997,-0.02437004,-0.060669377
326364.408289376,0,-0.007646054,-0.015256524,0.0038972497,-0.018058673,-0.02748684,-0.05458301
326364.428289376,20000000,-0.00824739,-0.018768348,0.0039039254,-0.010812586,-0.027875299,-0.05059948
326364.448289376,0,-0.006690681,-0.010101967,0.00035744905,-0.010088466,-0.016590163,-0.03395689
326364.468289376,0,-0.008338168,-0.007086396,-0.0044730306,-0.005095273,-0.005590833,-0.025364414
326364.488289376,20000000,-0.010213062,-0.0031755567,-0.0049223304,0.008722987,-0.0021722056,-0.01882499
326364.508289376,0,-0.0098553,-0.000251621,-0.0030683875,0.016545402,-0.0012687361,-0.0036534006
326364.528289376,0,-0.0071575344,-0.0052669607,-0.0037455559,0.016134098,0.005028054,-0.004543731
326364.548289376,0,-0.006091565,0.011443503,-0.003848672,-0.021819502,0.01443419,0.034985036
326364.568289376,0,-0.0011733174,0.0149685815,-0.008017778,-0.06733939,0.055139765,0.1401948
326364.588289376,20000000,0.008284375,0.013376355,-0.02670753,-0.116504475,0.123415016,0.19597666
326364.608289376,0,-0.0010370761,0.0003348887,-0.007551253,-0.10086582,0.12003081,0.18134512
326364.628289376,20000000,0.0011095554,-0.016013533,0.001879394,-0.072064035,0.074558094,0.11394528
326364.648289376,0,0.0060524046,-0.01478982,0.0039376616,-0.08398008,0.06626228,0.036951527
326364.668289376,0,-0.012558743,-0.017282978,0.018816471,-0.088874385,-0.015724488,0.019014088
326364.688289376,0,-0.010057464,-0.017335802,0.01490891,-0.07406961,-0.049113736,-0.012512745
326364.708289376,0,-0.0096747875,-0.02497495,0.0025451183,-0.03118762,-0.040434845,-0.05460483
326364.728289376,20000000,-0.009290695,-0.03261237,-0.0098208785,0.011694375,-0.031755954,-0.09669691
326364.748289376,40000000,-0.008905232,-0.04024809,-0.022188962,0.054576367,-0.023077063,-0.138789
326364.768289376,60000000,-0.010723889,0.011689626,-0.027338088,-0.012845315,-0.014215053,-0.13284391
326364.788289377,0,-0.012421146,0.013823509,-0.010940373,-0.022604756,-0.007930077,-0.084137544
326364.808289377,20000000,-0.009716123,0.009454742,-0.002411902,-0.005962642,0.018048495,-0.034280155
326364.828289377,0,-0.009239435,0.0062339827,-0.0034334064,-0.017698284,0.02413994,-0.004238358
326364.848289377,0,-0.0078755915,0.0006174594,-0.0030634403,-0.011666132,0.02500632,-0.0130402325
326364.868289377,20000000,-0.006511703,-0.004999116,-0.002693653,-0.00563398,0.0258727,-0.021842107
326364.888289377,40000000,-0.0051476955,-0.010615706,-0.002324164,0.00039817207,0.026739081,-0.030643981
326364.908289377,60000000,-0.0051202327,-0.012933545,0.0021355748,0.0173418,0.02174515,-0.03871647
326364.928289377,0,-0.0061696917,-0.002799563,0.0013290644,0.023820797,0.0060025044,-0.03715257
326364.948289377,0,-0.0049503744,-0.0010937899,0.0014010072,0.02938338,-0.0057023624,-0.029125229
326364.968289377,20000000,-0.008106798,-0.0007521212,0.0020020604,0.03605456,-0.013479644,-0.011910571
326364.988289377,40000000,-0.013902605,0.00044812262,0.005189538,0.040926985,-0.033704907,0.003189371
326365.008289377,60000000,-0.012803748,0.002278328,0.00048983097,0.030106263,-0.035054166,0.012174093
326365.028289377,80000000,-0.0087824315,0.0013784692,-0.0054493546,0.013134776,-0.01390842,0.024181023
326365.048289377,100000000,-0.016394481,0.0051720664,0.0055829883,-0.00794024,-0.034735136,0.052331027
326365.068289377,0,-0.012061223,0.0021865442,-0.003316462,-0.048003916,-0.031367403,0.063159466
326365.088289377,0,-0.006256476,-0.0054303706,-0.007850528,-0.0826034,-0.020440303,0.06388242
326365.108289377,0,-0.02153854,-0.024942998,0.015893638,-0.08034831,-0.0768511,0.012438383
326365.128289377,20000000,0.0033337325,-0.024631754,-0.001165092,-0.06905927,0.040044792,0.07504991
326365.148289377,0,-0.0064626485,-0.024931122,-0.0029240847,-0.058740634,0.024182487,-0.0032225251
326365.168289377,20000000,-0.016258478,-0.025230318,-0.0046853423,-0.048422,0.008320181,-0.08149496
326365.188289377,0,-0.01659508,-0.03872615,0.0036569834,0.0007418543,-0.07446277,-0.20637737
326365.208289377,0,-0.006595537,-0.038420554,-0.007514596,0.10117184,-0.101320766,-0.34804285
326365.228289377,0,0.001826942,-0.016770095,-0.007884622,0.18015954,-0.09145094,-0.3612266
326365.248289377,0,0.008666068,0.0020307899,-0.01029104,0.17327751,-0.032330584,-0.2746759
326365.268289377,0,-0.008711159,0.0022248179,0.0008329153,0.16365549,-0.05380986,-0.2154839
326365.288289377,0,-0.001132369,0.011885256,0.0019717813,0.12279361,-0.0587053,-0.17460239
326365.308289377,0,-0.0038173199,-0.0039642677,0.006142497,0.14067933,-0.061674684,-0.14381443
326365.328289377,0,-0.014052615,0.008703224,0.016282618,0.14734478,-0.06888591,-0.07157024
326365.348289377,0,-0.012928411,0.03497617,-0.0019194484,0.07954934,-0.073191196,-0.0010875836
326365.368289377,0,-0.0034445524,0.02313821,-0.019996524,0.013239108,-0.04442697,0.03458975
326365.388289377,0,0.0012865216,7.852912e-05,-0.025705218,-0.014072869,0.04143446,0.034214348
326365.408289377,0,-0.0073694885,-0.0015279874,-0.012063146,-0.064505234,0.18434659,0.09632091
326365.428289377,0,-0.009054646,-0.02573438,-0.0008582473,-0.103708714,0.2314049,0.11726503
326365.448289377,0,-0.030971944,-0.032279365,0.058111846,-0.03440909,0.1397807,0.18227851
326365.468289377,20000000,-0.052887313,-0.03877447,0.117031336,0.03489054,0.048156507,0.247292
326365.488289377,40000000,-0.074800104,-0.045219637,0.17590052,0.10419017,-0.043467678,0.31230548
326365.508289377,60000000,-0.027168304,-0.08880155,0.0021392703,0.03705369,-0.061841138,0.14799485
326365.528289377,0,0.0049705505,-0.029410385,-0.009225249,-0.044603877,-0.033357337,0.117078066
326365.548289377,20000000,-0.011472449,-0.03240314,0.029625297,-0.024096463,-0.12387737,0.016323239
326365.568289377,0,-0.015308425,-0.04705902,0.010110438,0.0051120576,-0.12990926,0.018502198
326365.588289377,20000000,0.0024760962,-0.07268581,-0.0354594,0.1313844,-0.027396113,-0.106035255
326365.608288417,0,-0.02082349,0.0026132194,-0.025710834,0.10089928,-0.06409625,-0.10581586
326365.628288417,20000000,-0.012977779,0.002564095,-0.025560677,0.077057526,-0.017287884,-0.07161373
326365.648288417,0,-0.008869037,0.00393641,-0.017735064,0.050640672,0.017485268,-0.039684907
326365.668288417,0,-0.008850291,-0.00064016134,-0.0060808063,0.035884485,0.02639188,-0.018003466
326365.688288417,0,-0.009566799,-0.007119555,0.0019147992,0.032572474,0.021287063,-0.0054997867
326365.708288417,20000000,-0.010031924,-0.003548976,0.0040569305,0.0231432,0.00868442,0.007840877
326365.728288417,0,-0.009728521,-0.004598204,0.0028062463,0.019903746,-0.0016938234,0.016952556
326365.748288417,0,-0.008473009,-0.0071026683,0.0020860434,0.031344842,0.0073405905,0.016875513
326365.768288417,20000000,-0.007217303,-0.009607032,0.001365304,0.042785935,0.016375003,0.01679847
326365.788288417,40000000,-0.0059613287,-0.01211128,0.0006439686,0.05422703,0.02540942,0.016721427
326365.808288417,60000000,-0.009520069,-0.005838342,0.007341385,0.05802748,0.01352984,0.03334531
326365.828288417,0,-0.013399214,0.0017136298,0.012927055,0.04197683,-0.009938874,0.053419255
326365.848288417,20000000,-0.011333361,0.0013293475,0.004198134,0.011495564,-0.012722865,0.058316104
326365.868288417,0,-0.013789535,0.0022981465,-0.0034921765,-0.022386696,-0.012201269,0.06794818
326365.888288417,20000000,-0.016585529,-0.016482707,0.00066781044,-0.02801763,-0.029293444,0.016827103
326365.908288417,0,-0.0063967407,-0.017018002,-0.0323233,-0.028749213,0.05778474,0.03702178
326365.928288417,20000000,-0.012055472,-0.039248988,-0.023053646,0.018327225,0.080436155,-0.063377075
326365.948288417,0,-0.032911092,-0.0026687197,0.0017845631,0.0100657735,0.041294646,-0.10312499
326365.968288417,0,-0.02503118,-0.0046095103,0.0028697252,0.015920717,-0.0036324374,-0.17782828
326365.988288417,0,-0.018406838,-0.0033503957,0.016673625,0.0847801,-0.06855656,-0.22725615
326366.008288417,20000000,-0.011239767,-0.0029481612,0.011772394,0.15543914,-0.109703526,-0.26777148
326366.028288417,0,-0.011963025,0.00019750372,0.007636428,0.13223383,-0.08828528,-0.19649413
326366.048288417,20000000,-0.012692764,0.0033498965,0.0034918785,0.10902852,-0.066867046,-0.12521678
326366.068288417,40000000,-0.013429061,0.0065090023,-0.0006611347,0.08582321,-0.04544881,-0.053939447
326366.088288417,60000000,-0.013840452,0.0018665045,-0.0002834201,0.06392115,-0.03771911,-0.005794231
326366.108288417,0,-0.013370872,-0.0053001195,-0.003675282,0.045239065,-0.028043665,0.01864556
326366.128288417,0,-0.010923296,-0.010858852,-0.0023540854,0.046861432,-0.021317031,0.017487345
326366.148288417,20000000,-0.008909136,-0.01526263,-0.00074124336,0.055489417,-0.02096682,-0.006957406
326366.168288417,0,-0.0064091235,-0.015247688,-0.002265215,0.0675594,-0.021908449,-0.03377966
326366.188288417,20000000,-0.004139304,-0.013979532,-0.00041651726,0.0807103,-0.026597476,-0.05836443
326366.208288417,0,-0.004106894,-0.0010195524,-0.004789114,0.05939261,-0.0013132319,-0.03924496
326366.228288417,0,-0.004478246,-0.0074765533,-0.0033089519,0.03506497,0.057279542,0.0036910884
326366.248288417,0,0.0017023534,0.005754914,-0.0085657835,-0.012279015,0.15255013,0.1220008
326366.268288417,20000000,0.038535476,0.070140675,-0.018223584,-0.050113242,0.25427654,0.47513115
326366.288288417,0,-0.0052189827,-0.035125237,0.023396969,-0.023095623,0.15413079,0.25551367
326366.308288417,0,0.014067844,0.011656702,-0.0055399537,-0.094803855,0.1739617,0.24787806
326366.328288417,0,0.0065074116,-0.0039099567,-0.0030385256,-0.08810352,0.1010389,0.16558784
326366.348288417,20000000,-0.0010555238,-0.019475956,-0.00053846836,-0.08140319,0.028116114,0.08329762
326366.368288417,40000000,-0.008620977,-0.03504129,0.0019600391,-0.07470286,-0.04480668,0.001007393
326366.388288417,60000000,-0.005551368,-0.043857954,-0.0013908148,-0.02511552,-0.0717969,-0.06808231
326366.408288417,0,-0.0059435368,-0.039863184,-0.015140176,0.023639478,-0.055482537,-0.14506254
326366.428288417,0,-0.0107898265,-0.011642989,-0.022282183,0.015926108,-0.021389771,-0.16883752
326366.448288417,0,-0.012554631,0.012336936,-0.015975714,0.009204654,0.0012832917,-0.124147296
326366.468288417,0,-0.010179624,0.014568642,-0.008384764,0.0115379365,0.022740856,-0.07392685
326366.488288418,20000000,-0.008262396,0.009754408,0.00017154217,0.01360519,0.023613004,-0.038246013
326366.508288418,0,-0.008278683,0.0076865777,0.003824532,0.01540467,0.013740876,-0.012498068
326366.528288418,0,-0.0061366707,0.003468372,0.0048691034,0.026247572,-0.0015683081,-0.0012930194
326366.548288418,20000000,-0.004023224,-0.00038920343,0.004709244,0.04701592,-0.010261184,0.006560508
326366.568288418,0,-0.0031380653,-0.0018760115,0.00028842688,0.06598207,-0.014539868,0.019166458
326366.608288418,0,-0.00555633,-0.006117165,-0.0014562607,0.08174857,-0.015768215,0.051177144
326366.628288418,0,-0.0070825815,-0.005164735,-0.0038257241,0.06288575,-0.008514813,0.06031496
326366.668288418,0,-0.012475342,-0.009889482,-8.08239e-05,0.0331325,-0.019588955,0.065574504
326366.688288418,20000000,-0.012322083,-0.0116753075,-0.0012844801,0.025878144,-0.019222807,0.058540806
326366.708288418,0,-0.012415022,-0.01320618,-0.0025992393,0.024281116,-0.024133867,0.048269425
326366.728288418,20000000,-0.012064621,-0.01197266,-0.00582999,0.014794426,-0.020033706,0.036594212
326366.748288418,0,-0.010954887,-0.012348495,-0.0063099265,0.002934183,-0.019546283,0.016573172
326366.768288418,0,-0.0091857165,-0.016424913,-0.0037446618,-0.0073570265,-0.016823139,-0.000100348145
326366.788288418,20000000,-0.007416472,-0.0205013,-0.0011795759,-0.017648235,-0.014099996,-0.016773872
326366.808288418,40000000,-0.008539006,-0.025194095,0.0033194423,-0.01545269,-0.017002469,-0.030686077
326366.828288418,0,-0.007719934,-0.022774642,0.0015333891,-0.012344175,-0.016812593,-0.038797356
326366.848288418,0,-0.007759735,-0.017452536,-0.00074619055,-0.012089016,-0.008639622,-0.045782704
326366.868288418,0,-0.012859464,-0.009085376,0.0040267706,-0.007169866,-0.016467784,-0.030700779
326366.888288418,0,-0.011932954,-0.008703833,-0.005821705,-0.009935845,-0.013590098,-0.022935754
326366.908288418,20000000,-0.0065724254,-0.011763211,-0.011397421,-0.010963529,-0.0016370546,-0.0315571
326366.928288418,0,-0.004557684,-0.013346577,-0.0077855587,0.00022531766,0.0033422983,-0.048960812
326366.948288418,0,-0.008010969,-0.008782893,-0.0027759671,0.0019028813,-0.008144993,-0.05909858
326366.968288418,20000000,-0.011464015,-0.004218951,0.0022335649,0.003580445,-0.019632284,-0.069236346
326366.988288418,40000000,-0.010212287,0.0004880838,0.0010105968,-0.010691896,-0.02026535,-0.057101544
326367.008288418,0,-0.010893837,0.00020312518,0.0035220385,-0.015517954,-0.029527387,-0.042232495
326367.028288418,20000000,-0.012402967,-0.0030588843,0.0057133436,-0.007920275,-0.04974831,-0.029607875
326367.048288418,0,-0.013787851,-0.016141413,-0.0031561255,0.02262,-0.10648755,-0.13470224
326367.068288418,0,-0.012293905,0.0039777495,-0.0051149726,0.027971378,-0.11133705,-0.122033596
326367.088288418,0,-0.0032317191,-0.0036606751,-0.0077020526,0.04991001,-0.09231674,-0.11028506
326367.108288418,0,-0.0032928288,-0.00020463392,-0.008610547,0.028015845,-0.051319543,-0.049309216
326367.128288418,20000000,0.0013337433,-0.019328952,-0.008674979,0.031023433,-0.0217364,-0.050168213
326367.148288418,0,-0.005507782,-0.026143905,0.0044748783,0.054350667,-0.020069227,-0.051746484
326367.168288418,0,-0.002915442,-0.0037124008,-0.011047244,0.032544598,0.018663555,-0.028528478
326367.188288418,0,-0.008317903,0.0004791431,-0.0009896755,0.031088235,0.015608058,-0.0013507232
326367.208288418,0,-0.0073250383,-0.0046481974,-0.0018556118,0.027588567,0.012590761,0.010584271
326367.228288418,0,-0.00405851,-0.0058715306,-0.005814731,0.002414083,0.017735986,0.011719343
326367.248288418,0,-0.005532041,-0.0076177027,-0.0007619858,-0.017112112,0.015748039,0.0090895835
326367.268288418,0,-0.0058290064,-0.009413866,0.0027403235,-0.02270052,0.010744083,0.0054908027
326367.288288418,20000000,-0.0061259717,-0.011210015,0.0062422752,-0.028288927,0.0057401266,0.0018920221
326367.308288418,0,-0.009122714,-0.011783434,0.009858012,-0.02858612,-0.005864258,0.0027887903
326367.328288418,0,-0.01209864,-0.018474232,0.011219382,-0.0154244555,-0.017498067,0.01196415
326367.348288418,20000000,-0.015035182,-0.014711717,0.0065662265,-0.014910695,-0.013683287,0.031855755
326367.368288418,0,-0.01830192,-0.012428872,0.004506111,-0.026544098,-0.012347369,0.048709862
326367.388288418,20000000,-0.019001171,-0.012500508,-0.0019754767,-0.041302606,-0.0068516643,0.06679028
326367.408288418,0,-0.017251551,-0.009096477,-0.012667298,-0.048483144,0.017560747,0.10104125
326367.428288418,0,-0.007416904,-0.011529706,-0.027798653,-0.040499516,0.06829327,0.102890246
326367.448288418,0,-0.0031731576,-0.0063450523,-0.028002739,-0.022839433,0.111858875,0.093954995
326367.468288418,0,-0.012158841,-0.00029841065,-0.010007679,0.01362394,0.1036128,0.08338491
326367.488288418,0,-0.012987956,-0.0018161498,0.0028406978,0.07244804,0.06462486,0.06270397
326367.508288418,0,-0.010208577,0.008587401,0.0025043488,0.08032202,0.061944194,0.08037479
326367.528288418,20000000,-0.0074260086,0.018992465,0.0021626353,0.088196,0.059263527,0.09804562
326367.548288418,40000000,-0.007026762,0.015425887,-0.00286901,0.08724958,0.057125013,0.121795505
326367.568288419,0,0.00027389824,0.0075426605,-0.0092715025,0.09572144,0.10008001,0.16009901
326367.588288419,20000000,-0.0006774962,0.01859821,-0.009510875,0.09832709,0.13975377,0.2438668
326367.608288419,0,-0.0073492676,0.020067185,-0.008164406,0.07777402,0.13822767,0.29233447
326367.628288419,0,-0.017512575,-0.012081975,0.008368611,0.12815863,0.056892402,0.2129832
326367.648288419,0,-0.009355798,-0.0043983515,-0.0057531,0.119804725,0.08140448,0.20782243
326367.668288419,0,-0.015583053,0.0016600424,0.00296551,0.085427344,0.0468385,0.20026167
326367.688288419,0,-0.025058255,-0.015580567,0.014085293,0.07269487,-0.046480812,0.19023146
326367.708288419,0,-0.018024504,-0.053750314,-0.012098789,0.06368234,-0.12744364,0.021840543
326367.728288419,20000000,0.05645445,-0.0501683,-0.04709506,0.07590156,0.0988936,-0.1335576
326367.748288419,0,0.018527761,-0.0044411765,-0.0045812726,0.054853763,0.0862,-0.118383504
326367.768288419,0,0.007130742,0.0023274384,0.004596472,0.09041758,0.056537278,-0.07056983
326367.788288419,20000000,-0.0042673945,0.009093828,0.013770819,0.1259814,0.026874555,-0.02275616
326367.808288419,0,-0.004955381,0.020214412,0.010391593,0.16426106,0.013634807,0.024680361
326367.828288419,0,-0.0066405237,0.018440073,0.0029224157,0.171551,0.0058248173,0.027342897
326367.848288419,0,-0.009133801,0.014376835,0.0017291307,0.15098587,0.0039391713,0.040160593
326367.868288419,20000000,-0.011624411,0.010313628,0.00052815676,0.13042071,0.0020535255,0.05297829
326367.888288419,40000000,-0.014112294,0.0062504257,-0.00068050623,0.10985557,0.00016787986,0.06579598
326367.908288419,60000000,-0.01659748,0.0021871822,-0.0018968582,0.089290425,-0.001717766,0.078613676
326367.928288419,0,-0.007371649,-0.013623252,-0.011733651,0.07144628,0.020373855,0.08098506
326367.948288419,0,-0.009326667,-0.024768688,-0.006694317,0.057151463,0.045482226,0.07783876
326367.968288419,0,-0.01254189,-0.018553127,-0.0045968294,0.028678793,0.055826474,0.07025836
326367.988288419,20000000,-0.013129219,-0.021734262,-0.0023863912,0.0023604427,0.07174326,0.058517255
326368.008288419,0,-0.02439797,-0.02879937,0.007969558,-0.029497238,0.0368408,0.027711181
326368.028288419,20000000,-0.014065042,-0.045433328,0.023062348,-0.00037514046,0.010458078,0.02053585
326368.048288419,0,-0.00083859265,-0.01648587,-0.033465624,-0.07512806,0.11514443,0.019060625
326368.068288419,0,-0.010634959,-0.014316397,-0.008715749,-0.07265207,0.08582856,0.0018983148
326368.088288419,20000000,-0.009588957,-0.023667002,-0.0052048564,-0.06992474,0.07957434,-0.023820387
326368.108288419,0,-0.01242964,-0.021281522,0.0020632744,-0.05797305,0.04929348,-0.046388555
326368.128288419,20000000,-0.008832723,-0.015421822,-0.0020303726,-0.05319429,0.038378466,-0.0615559
326368.148288419,0,-0.00918974,-0.014499451,-0.0025912523,-0.037901945,0.021864202,-0.09754422
326368.168288419,20000000,-0.009544879,-0.013577843,-0.003152907,-0.022609603,0.005349938,-0.13353254
326368.188288419,40000000,-0.013372153,-0.011541639,0.0020996928,0.002383517,-0.04171331,-0.17828567
326368.208288419,0,-0.006946519,-0.0038330276,-0.0020748377,0.0126592005,-0.056302346,-0.1860395
326368.228288419,20000000,-0.0014835447,-0.0005260119,-0.009187758,0.006230019,-0.034427922,-0.16881406
326368.248288419,0,-0.0027424544,-0.0041653654,-6.943941e-05,-0.00075494545,-0.041792504,-0.14042994
326368.268288419,20000000,-0.004464492,-0.011281341,0.00031471252,-0.010548657,-0.024738962,-0.10677372
326368.288288419,0,-0.0054875165,-0.009187056,-0.0005489588,-0.02062137,-0.01871427,-0.07596705
326368.308288419,0,-0.005649686,-0.011381357,-0.0008932948,-0.027761837,-0.027161244,-0.07580984
326368.328288419,20000000,-0.005810663,-0.013574764,-0.0012385249,-0.034902304,-0.035608217,-0.07565262
326368.348288419,0,-0.009847686,-0.009370625,-0.00076657534,-0.050794117,-0.042425036,-0.060086757
326368.368288419,20000000,-0.010861665,-0.008487632,-0.0011152625,-0.069043905,-0.027081292,-0.032048106
326368.388288419,0,-0.011879474,-0.0067028245,-0.008629262,-0.09783389,0.014349636,0.028383255
326368.408288419,20000000,-0.009535268,-0.009201337,-0.0084450245,-0.10658484,0.04214243,0.113551036
326368.428288419,0,0.032182753,0.040605333,-0.046720505,-0.19547194,0.24289984,0.3434879
326368.448288419,0,0.015351251,0.021473637,-0.024965525,-0.19065021,0.1790739,0.28392667
326368.488288419,0,-0.004175782,-0.010695428,0.00636214,-0.17210996,0.045613132,0.13778184
326368.508288419,0,-0.00662373,-0.02545644,0.017531753,-0.12496689,-0.039688595,0.03167755
326368.528288419,0,-0.0065083355,-0.0027045682,0.0049170256,-0.07171284,-0.053328134,0.02697546
326368.548288419,20000000,-0.006390795,0.020048944,-0.007700622,-0.018458776,-0.06696767,0.02227337
326368.568288419,40000000,0.0047352463,0.012416566,-0.02646768,-0.025503056,-0.03559423,-0.045568384
326368.588288419,0,-0.004222125,0.012838932,-0.015568972,-0.039316062,-0.022459663,-0.041169368
326368.608288419,0,-0.008132115,0.005139854,-0.005256951,-0.03463877,-0.017866509,-0.0064732283
326368.628288420,0,-0.0025810748,-0.00059686415,-0.00597471,-0.03644726,0.0037266556,0.0133646745
326368.648288420,0,-0.00329943,-0.004092306,-0.0012938976,-0.04506684,-0.0031150104,0.0145928655
326368.668288420,20000000,-0.004018143,-0.0075877896,0.0033860803,-0.05368642,-0.0099566765,0.015821056
326368.688288420,0,-0.008272752,-0.006910233,0.007906318,-0.05626312,-0.03519973,0.015997723
326368.708288420,20000000,-0.0056743324,-0.009355864,0.0036827922,-0.056418534,-0.04273796,0.009530071
326368.728288420,0,-0.0037169755,-0.009810761,-0.0020807981,-0.05656082,-0.03305832,0.0037101316
326368.748288420,0,-0.0062995255,-0.008626673,-0.0033516884,-0.068259194,-0.026632568,0.00540131
326368.768288420,20000000,-0.008882165,-0.007442724,-0.0046247244,-0.07995756,-0.020206816,0.007092489
326368.788288420,40000000,-0.010537624,-0.011957139,-0.0041561127,-0.08529938,-0.01651197,-0.001506961
326368.808288420,0,-0.010855749,-0.016529465,-0.00042837858,-0.0800073,-0.010527225,-0.010776098
326368.828288420,20000000,-0.009565502,-0.018411592,3.6418438e-05,-0.08125857,-0.0069686035,-0.021823514
326368.848288420,0,-0.010465145,-0.01605573,-0.00014984608,-0.088382915,-0.010355402,-0.03378969
326368.868288420,0,-0.025110692,-0.03300293,0.001383841,-0.07016326,-0.10097243,-0.17708957
326368.888288420,20000000,-0.039751664,-0.04994865,0.0029122233,-0.051943596,-0.19158944,-0.32038945
326368.908288420,40000000,-0.014090672,-0.030022675,-0.0011402369,0.0011178665,-0.1382332,-0.20156372
326368.928288420,0,0.017140761,-0.0221713,-0.014113128,0.0003613577,-0.04751964,-0.17936827
326368.948288420,0,0.0082618,7.729977e-06,-0.014190614,-0.11327278,0.013494439,-0.11412963
326368.968288420,20000000,-0.0076138526,-0.010932408,0.005736172,-0.17695972,0.019051585,-0.04348427
326368.988288420,0,-0.0049818307,-0.0063281283,0.0037371516,-0.2038855,0.024313647,0.008826137
326369.008288420,20000000,-0.0023514628,-0.0017227829,0.0017225146,-0.23081128,0.02957571,0.061136544
326369.028288420,0,-0.0011677295,-0.0124964155,-0.0014683008,-0.2491937,0.035279226,0.05175943
326369.048288420,0,-0.007352546,-0.015198499,-0.00017160177,-0.25237644,0.019590216,-5.5462122e-05
326369.068288420,0,-0.018370152,-0.013282236,0.010434151,-0.22763354,-0.0440514,-0.057755966
326369.088288420,20000000,-0.012317345,-0.013579927,-0.0034421682,-0.23290478,-0.059535757,-0.121704966
326369.108288420,0,-0.007853895,-0.016322322,-0.015175104,-0.24495023,-0.051333826,-0.17675723
326369.128288420,0,-0.0057459027,-0.016535968,-0.0129547715,-0.2363413,-0.036641836,-0.20132795
326369.148288420,0,-0.004458323,-0.0129914805,-0.012269795,-0.21175966,-0.015852196,-0.20198645
326369.168288420,0,-0.0072149634,-0.00018081069,-0.0066760182,-0.18214568,-0.008979522,-0.15765628
326369.188288420,0,-0.007655993,0.003311105,-0.004690945,-0.15697417,0.005752585,-0.10720627
326369.208288420,20000000,-0.008090377,0.006803997,-0.0027157664,-0.13180265,0.020484693,-0.056756258
326369.228288420,0,-0.0053661317,0.008970216,-0.0007213354,-0.12766914,0.034685515,-0.0035182275
326369.248288420,20000000,-0.0025084764,0.003711,-0.0027216077,-0.11902834,0.04677973,0.01894081
326369.268288420,0,-0.00621973,-0.00040230155,-0.0011704564,-0.109868966,0.039939348,0.017615085
326369.288288420,20000000,-0.0071505606,-0.00087641925,-0.00065732,-0.10251416,0.027383372,0.021189308
326369.308288420,0,-0.0045275837,-0.00744316,-0.0011451244,-0.09489082,0.024520963,0.01074975
326369.328288420,0,-0.0042924434,-0.008367725,0.00045371056,-0.08356384,0.027588628,0.013316182
326369.348288420,0,-0.0043358505,-0.008120291,-0.0014824867,-0.07485177,0.03284745,0.026228324
326369.368288420,20000000,-0.006322071,-0.006387621,0.0042817593,-0.06205513,0.027140133,0.02448404
326369.388288420,40000000,-0.009556651,-0.009517454,0.0014877319,-0.06569909,0.0016644858,-0.0032415688
326369.408288420,0,-0.010128185,-0.00757014,-0.00042831898,-0.07563059,-0.032696314,-0.020586692
326369.428288420,20000000,-0.006062284,-0.008385412,-0.0071647763,-0.07715948,-0.028280199,-0.031276003
326369.448288420,0,-0.007155478,-0.010949299,-0.004482031,-0.06752859,-0.03235594,-0.052417867
326369.468288420,20000000,-0.011837363,-0.0071559325,0.0003825426,-0.052819267,-0.053013645,-0.07077779
326369.488288420,0,-0.009376451,-0.008884825,3.0457973e-05,-0.035272744,-0.07175797,-0.09144673
326369.508288420,0,-0.005700469,-0.008798584,-0.0031625628,-0.03802253,-0.055711538,-0.09763912
326369.528288420,20000000,-0.0047183037,-0.004544869,-0.004286468,-0.05791924,-0.033246122,-0.075919494
326369.548288420,0,-0.0050157607,0.0010678619,-0.005925417,-0.10214746,0.0007111989,-0.04667054
326369.568288420,0,-0.009964839,-0.006955363,-0.0010173917,-0.108434245,0.009110335,-0.012114983
326369.588288420,0,-0.00779967,-0.008676626,-0.0058666468,-0.121552214,0.03655593,0.041561827
326369.608288420,0,-0.0005823672,-0.012415782,-0.016327262,-0.1227492,0.076477036,0.070085526
326369.628288420,0,-0.0024457872,-0.0056438446,-0.013772309,-0.12445676,0.09387615,0.081145525
326369.648288420,20000000,-0.0074183494,-0.02096992,0.0027672648,-0.073842086,0.056292005,0.03208249
326369.668288420,0,-0.011751592,-0.01831375,0.0008686185,-0.03909561,0.03290405,0.01111708
326369.688288420,20000000,-0.00731194,-0.011755839,-0.006477654,-0.034684755,0.02854816,-0.022380115
326369.708288421,0,-0.017748058,-0.023561217,0.005051732,0.028135777,-0.007566409,-0.022492787
326369.728288421,20000000,-0.008424416,-0.0006529838,-0.015845,0.03658354,0.018425738,-0.019875478
326369.748288421,0,-0.0028651357,-0.011061341,-0.019418001,-0.0054921173,0.03023166,-0.0522602
326369.768288421,0,-0.009388268,-0.0052048415,-0.0011716485,-0.02033963,0.017652735,-0.030330345
326369.788288421,0,-0.011600941,-0.012760773,0.0043323636,-0.009485627,-0.0035712235,-0.020138934
326369.808288421,0,-0.0058653057,-0.008447573,-0.004825592,-0.014574055,0.021789975,-0.011737519
326369.828288421,20000000,-0.005844936,-0.008867189,0.0025259256,0.0057606883,0.010832953,-0.012489818
326369.848288421,0,-0.007018432,0.00015635788,-0.00048291683,0.007605155,0.0046920986,-0.006125237
326369.868288421,20000000,-0.0097671,0.0051597953,0.0051024556,0.020503432,-0.008933401,0.0055744667
326369.888288421,0,-0.0066305995,0.0019941926,-0.003761232,0.028296903,-0.013388278,0.013308544
326369.908288421,0,-0.01179342,0.004492432,-0.0053732395,0.04462899,-0.026327824,0.03361739
326369.928288421,0,-0.0027254075,-0.0019556582,-0.012957215,0.05060405,-0.0034778211,0.029735254
326369.948288421,20000000,-0.0019681007,-0.003444448,-0.0046533346,0.054017577,-0.0036800331,0.016913425
326369.968288421,0,-0.0034818351,-0.0033924729,-0.0025099516,0.053501885,-0.00806002,0.017670525
326369.988288421,20000000,-0.0049951524,-0.0033403784,-0.00036752224,0.052986193,-0.012440007,0.018427625
